AppTimestamp(s),SensorTimestamp(s),acc_x,acc_y,acc_z,gyro_x,gyro_y,gyro_z,mag_x,mag_y,mag_z,yaw_deg_ori,yaw_deg_ori_cal,yaw_deg,yaw_error,Quat_w,Quat_x,Quat_y,Quat_z,q_w,q_x,q_y,q_z,quat_angle_error_deg
0.0447,73772.653,-0.08280913838054405,-0.19603423724703273,-0.056989603477076045,0.5231064199062232,0.33582448415638333,-0.16387753529204627,0.32936303486704865,31.959149452403913,-16.47555157809003,-164.235794,-167.699111036685,0.0,164.235794,0.2411917173741255,0.29787016,-0.4111996,-0.82705188,1.0,0.0,0.0,0.0,152.0862256925762
0.0517,73772.673,0.1372289668260136,-0.2071459985769053,0.056657777926115926,0.4461028141048006,0.35334744264553297,-0.26588181067637434,0.24881254626486182,31.73394814801965,-16.248813470144693,-164.132614,-167.49657209493242,0.0,164.132614,0.2397176940339965,0.29574412,-0.40683925,-0.83039308,1.0,0.0,0.0,0.0,152.26024191777955
0.0595,73772.693,0.32890489370064246,-0.2613515708917067,0.15716033286427766,0.4102308877529819,0.38321953034774336,-0.34575133648082285,0.2376348249876994,31.511206807571497,-16.062491364763147,-164.140121,-167.42849779459064,0.0,164.140121,0.2378188256399721,0.29349458,-0.403705,-0.83326191,1.0,0.0,0.0,0.0,152.48431727476003
0.0751,73772.7129,0.4660478906498149,-0.3699710600992585,0.2256936656462578,0.4486285002398988,0.4283089908736326,-0.38127436136875337,0.3394040538776686,31.321094229125684,-15.905634844558449,-164.206299,-167.47871495727878,0.0,164.206299,0.2351462450226489,0.28991076,-0.40191022,-0.83613765,1.0,0.0,0.0,0.0,152.79951285761
0.1012,73772.734,0.5077443481611168,-0.5233607750497971,0.22891544797469798,0.5767616156637283,0.485242006801343,-0.3536742854496687,0.5431096709094492,31.227243458292026,-15.700926673163856,-164.288773,-167.5599007355719,0.0,164.288773,0.2317003681794654,0.28502899,-0.40002424,-0.83967495,1.0,0.0,0.0,0.0,153.20559955714117
0.1126,73772.754,0.446736159367086,-0.6680633003358558,0.12835779498976407,0.7843294952608191,0.5512795448604951,-0.2641065677830663,0.8060648418806311,31.228570000471375,-15.449678830494822,-164.25,-167.53098460851265,0.0,164.25,0.2281748615716907,0.27886721,-0.39711666,-0.844078,1.0,0.0,0.0,0.0,153.6207160049769
0.1432,73772.7739,0.28096955623072395,-0.7527686411883705,-0.08104388854940048,1.0321695884222741,0.6375409924798874,-0.14060666034228897,1.094783525356081,31.299370832321273,-15.121817544973414,-164.198105,-167.40615234940964,0.0,164.198105,0.2248424405122694,0.27348089,-0.39202356,-0.84910047,1.0,0.0,0.0,0.0,154.0127734508908
0.1536,73772.794,0.03846900298137523,-0.7254308669230864,-0.3432513150159373,1.2519698116424411,0.7731221616460473,-0.030734210328090872,1.184006210943772,31.398144315040486,-14.686059934432476,-163.856186,-166.8757132882624,0.0,163.856186,0.2242948459555187,0.27116698,-0.38302124,-0.85408139,1.0,0.0,0.0,0.0,154.07716791160038
0.1719,73772.814,-0.28157926802502176,-0.5916393519704677,-0.5545827428984467,1.3710292548172722,0.9781145527980046,0.04280026109634241,0.9040097187722083,31.517846891742185,-14.040729113190276,-163.080719,-165.70881079728787,0.0,163.080719,0.2280761108189507,0.27381018,-0.36826423,-0.85871458,1.0,0.0,0.0,0.0,153.63233847194022
0.1934,73772.8339,-0.6014416607065876,-0.3676211746831388,-0.5848601706398888,1.3743505201157178,1.1995435415590123,0.09398848722354963,0.7064913599371465,31.556532123714987,-13.294525821850662,-162.214584,-164.43158056382177,0.0,162.214584,0.2304387570516493,0.27249643,-0.3510623,-0.86567831,1.0,0.0,0.0,0.0,153.3541908466123
0.2125,73772.854,-0.8791602918262018,-0.038122936627696724,-0.3062371346740438,1.3004560153953646,1.3572409609079044,0.1675690257692805,0.9465071183185367,31.369556468245285,-12.781634519837207,-161.577942,-163.66187422128084,0.0,161.577942,0.2284082368603012,0.26225293,-0.33797851,-0.87454194,1.0,0.0,0.0,0.0,153.59324780899723
0.2306,73772.874,-1.1503698143558383,0.3805786080496194,0.3342583666815173,1.171783476635889,1.396625596751571,0.278684844504981,1.5266928439079779,30.939036838662865,-12.604398198468775,-161.17952,-163.37821876028056,0.0,161.17952,0.2243983699978208,0.24797113,-0.33115441,-0.88232219,1.0,0.0,0.0,0.0,154.0649946260162
0.253,73772.8939,-1.2801396892682964,0.7075300543777763,1.2657701350801993,0.9443058113782337,1.3000721550652499,0.3546957975674567,1.764225953604611,30.512365634357337,-12.293822521382172,-159.819321,-162.14144945209537,0.0,159.819321,0.2268253004056111,0.23298055,-0.32082796,-0.8895728,1.0,0.0,0.0,0.0,153.77952871449685
0.2759,73772.914,-1.257209757732471,0.7148381760298532,2.2167033608512448,0.5410185395132667,1.07738179283096,0.3076542853241813,1.0722949315624088,30.32599217289377,-11.43632757787238,-156.96814,-158.97293298330138,0.0,156.96814,0.2437716721974583,0.22919023,-0.29950136,-0.89350218,1.0,0.0,0.0,0.0,151.78149000613044
0.2904,73772.934,-0.6580163399249259,0.7551736678246401,2.8159279312570504,0.031329560701714054,0.7496416420978291,0.07770922440271882,0.7106782559408487,30.063783578572732,-10.83838987020865,-154.265015,-156.11368033887848,0.0,154.265015,0.2588528971217371,0.21953978,-0.28189307,-0.8974039,1.0,0.0,0.0,0.0,149.99598398368968
0.3101,73772.954,0.13687473579137022,1.1009012886757343,2.806374966239108,-0.5092173156125921,0.44068594999794186,-0.22744566368689764,1.5719692593184966,29.63945132951445,-10.954254311931251,-154.045837,-156.0185950157769,0.0,154.045837,0.2589159320195337,0.21488795,-0.28191227,-0.89850497,1.0,0.0,0.0,0.0,149.98850577157407
0.3317,73772.9739,1.0500515432836317,1.7056199188256302,2.360831176788828,-0.9883967392365636,0.25527212356614476,-0.4741741859205555,2.8849099472979063,29.114390391952405,-11.706115737268622,-154.892563,-157.32073829292116,0.0,154.892563,0.2526651097149924,0.21317366,-0.29618305,-0.89609873,1.0,0.0,0.0,0.0,150.72944825681395
0.3541,73772.9938,1.9766669063721225,2.1531119348965735,1.906953664641991,-1.3452960307238921,0.21160538156132547,-0.56268059034318,3.9799896909273027,28.853999317969592,-12.288020437371726,-155.901337,-158.68104981767485,0.0,155.901337,0.2455791137785398,0.21223202,-0.30880216,-0.89403003,1.0,0.0,0.0,0.0,151.5678797485904
0.3701,73773.014,2.8035649846953943,2.339646444732562,1.7449769144167995,-1.5599206494559623,0.2408750748312154,-0.4686355076846335,4.635619043226427,28.92326175160398,-12.68896889403653,-156.404358,-159.4914133865745,0.0,156.404358,0.2406000404450498,0.20753017,-0.31684083,-0.89367485,1.0,0.0,0.0,0.0,152.1560841394137
0.3946,73773.034,3.3394396985394907,2.532894770859084,1.925508668016878,-1.6215868406040208,0.22981421488381276,-0.2519328520460328,4.816972122110776,29.079670415346985,-13.413561357641155,-155.938263,-159.6137867692741,0.0,155.938263,0.2417159327777174,0.20170462,-0.32852349,-0.89048356,1.0,0.0,0.0,0.0,152.0243234880767
0.4105,73773.054,3.638031427780658,2.981101254950624,2.3242026860830336,-1.5545644217495247,0.1354170715991756,0.02393307165472125,4.688209746367535,29.199059654757708,-14.459637328293276,-154.598145,-159.20856213813377,0.0,154.598145,0.2477969707598873,0.19499235,-0.34396321,-0.88445687,1.0,0.0,0.0,0.0,151.30562705900456
0.4376,73773.074,3.6490304740188355,3.6117564306532675,2.8102553149373737,-1.4347230152807993,-0.02756104032046569,0.29938818540918444,4.603998564231727,29.535961842612338,-14.994642902478928,-153.819519,-158.9696160951848,0.0,153.819519,0.2523811619770323,0.19482294,-0.35325083,-0.87952352,1.0,0.0,0.0,0.0,150.7630761212072
0.4545,73773.095,3.3198200835127394,4.440946217250865,3.15274976424951,-1.3574634292213221,-0.23671675436242745,0.545366199806061,4.4574503280827535,30.07534039782862,-14.985919336661153,-153.492249,-158.71751743130272,0.0,153.492249,0.2572611266713491,0.20235386,-0.35634249,-0.87515122,1.0,0.0,0.0,0.0,150.18478211750798
0.4718,73773.115,2.6513964601617976,5.468946004218297,3.0974774863947285,-1.37678329590695,-0.44341364244696074,0.7681932454262532,4.292890550965042,30.523512559317574,-14.971792018875195,-153.236649,-158.56216767765488,0.0,153.236649,0.2626693590419816,0.21243569,-0.36135077,-0.86908084,1.0,0.0,0.0,0.0,149.54297678505955
0.4927,73773.135,1.707320990287224,6.4087159545716466,2.5552550846449673,-1.4954819449847547,-0.6339520435903137,0.999646205449682,3.930819144976729,30.96916654640253,-14.91503000630119,-152.72142,-158.19226278346162,0.0,152.72142,0.2699804752332517,0.22303207,-0.36646101,-0.86201715,1.0,0.0,0.0,0.0,148.67378996461042
0.5189,73773.155,0.7036610904162495,7.012547980856787,1.5206518216995608,-1.6919593880848702,-0.7917315903398706,1.2859208515657805,3.4187988663771556,31.46594036595922,-14.861749690321615,-151.898087,-157.62985451616203,0.0,151.898087,0.2778549213767311,0.23039852,-0.37128139,-0.85549009,1.0,0.0,0.0,0.0,147.7355573141405
0.5387,73773.175,-0.3489493938988677,7.100058070759346,0.06882501389646478,-1.9575774275785907,-0.892378346281261,1.6269170393808698,2.89366938668884,32.05072041258319,-14.874507480347134,-151.331711,-157.34060273660117,0.0,151.331711,0.2848785832306026,0.23966765,-0.37801886,-0.84764695,1.0,0.0,0.0,0.0,146.89681787712615
0.5555,73773.195,-1.35602973501512,6.496066270926302,-1.6524350466481295,-2.263293584647317,-0.9258588737226967,1.9940656424041512,1.9964705893968837,32.76185540546662,-14.992059022285439,-150.250168,-156.58894713716802,0.0,150.250168,0.2961557113979161,0.25183395,-0.38471621,-0.83717674,1.0,0.0,0.0,0.0,145.54629634919866
0.5718,73773.215,-2.1661878826490195,5.116905604087135,-3.426484391657347,-2.571481631069679,-0.8835322283821704,2.333722774539308,0.6108585888662077,33.53722440112878,-15.188147733495489,-148.029648,-154.82816307301692,0.0,148.029648,0.3135926977782549,0.26357704,-0.38927323,-0.82501704,1.0,0.0,0.0,0.0,143.44824573129878
0.592,73773.235,-2.768304891052926,3.06673205228584,-5.067478141832276,-2.856346241669859,-0.7661558207354731,2.5692715712816803,-1.128496229485135,34.19336129777526,-15.51756744707274,-144.669022,-152.14714903034493,0.0,144.669022,0.3366277763853039,0.27530053,-0.39360499,-0.80991757,1.0,0.0,0.0,0.0,140.6568947555958
0.6119,73773.255,-3.1812667641027543,0.5720805211967415,-6.351320245200357,-3.0675065300821354,-0.6086873685146432,2.666728373490719,-3.120012627007207,34.61546180050383,-15.89206002636176,-140.100327,-148.48073991174223,0.0,140.100327,0.364643274201958,0.28667334,-0.39762476,-0.79167432,1.0,0.0,0.0,0.0,137.2287383156178
0.6388,73773.275,-3.4672182399832296,-1.8941584550618442,-7.046009486241505,-3.1342215025264957,-0.33714691240456646,2.684286205446971,-4.5988385640358596,34.52508700226305,-16.89470960278498,-133.724213,-144.94851019429984,0.0,133.724213,0.3924224881710103,0.28597403,-0.41074991,-0.77169162,1.0,0.0,0.0,0.0,133.78936418130746
0.6599,73773.295,-3.724313829606913,-4.0134834105017525,-7.062289784006127,-3.0351901795715728,-0.016204105627784238,2.6378053910506485,-5.63769801255628,33.930074342137125,-18.504000111288626,-124.887711,-141.64216255951754,0.0,124.887711,0.4207556682561206,0.27683687,-0.43247458,-0.74785811,1.0,0.0,0.0,0.0,130.23538964396147
0.6728,73773.316,-3.7059323308330634,-5.666057936575731,-6.565302184275171,-2.729056247146346,0.25169291167640717,2.6268632295054504,-7.147680537349706,33.23739253958807,-19.72223229591809,-113.40641,-136.22936088329283,0.0,113.40641,0.4556667753783466,0.25586829,-0.44528252,-0.72706443,1.0,0.0,0.0,0.0,125.78431212191913
0.6925,73773.336,-3.395291042163638,-6.915774395202075,-6.03493898343314,-2.409742037164315,0.47407834073107613,2.517934693958492,-8.50816730066495,32.613819918314945,-20.6011123775692,-103.268234,-131.0140753949792,0.0,103.268234,0.4878893697307178,0.24122034,-0.45465857,-0.70502645,1.0,0.0,0.0,0.0,121.59609974873358
0.7154,73773.356,-2.874961108118146,-7.8795768313123675,-5.461123541361973,-2.1383136331724035,0.7001441484642158,2.2979217473947666,-9.800340531577215,31.89232632262535,-21.465840735773327,-93.800858,-125.83891479883245,0.0,93.800858,0.518664029805323,0.22941153,-0.46322975,-0.68101114,1.0,0.0,0.0,0.0,117.51464029545582
0.7378,73773.376,-2.383402453706967,-8.524982026881924,-4.584436539239114,-1.9136764190563753,0.9567802529199803,1.9593386524143575,-10.871291490378,30.82755256744814,-22.702802371120644,-84.323853,-121.05604440779396,0.0,84.323853,0.5474581577859217,0.21185538,-0.47533122,-0.65533739,1.0,0.0,0.0,0.0,113.61438774142295
0.7599,73773.396,-2.0367299598600432,-8.80344401451911,-3.38784399518714,-1.7145605227415315,1.1634063692920038,1.5262224903327146,-11.727941533630919,29.54576684946928,-24.029773413637265,-76.023163,-116.74305330279573,0.0,76.023163,0.5733536871594849,0.18821941,-0.48822525,-0.63045627,1.0,0.0,0.0,0.0,110.03115752200928
0.7726,73773.416,-1.7800967715903313,-8.784979695987726,-2.1249503191785584,-1.5257319314511826,1.2403161836308572,1.0634083539037513,-12.353469937531646,28.500312611929196,-24.89623782009816,-70.510048,-113.01657980187315,0.0,70.510048,0.5945523841912741,0.16259557,-0.49652779,-0.61117125,1.0,0.0,0.0,0.0,107.03854168279523
0.7948,73773.436,-1.3581425092789168,-8.64146203984679,-1.0022788910676557,-1.3425127861640085,1.1821780852024883,0.6322143246749492,-12.984146120231847,27.90511202621282,-25.070139213298138,-67.638313,-109.36324030615741,0.0,67.638313,0.613276061635637,0.13750024,-0.49677858,-0.59849578,1.0,0.0,0.0,0.0,104.34647523265879
0.8133,73773.456,-0.8221351254477027,-8.233565559379802,0.05022260026845693,-1.1585011413232371,1.0663217175730644,0.2019520492996201,-13.158158722217468,27.172589436393448,-25.561119637383428,-64.771469,-106.96645323531156,0.0,64.771469,0.6267839437012834,0.11265266,-0.50300062,-0.58433008,1.0,0.0,0.0,0.0,102.37351140997693
0.8362,73773.476,-0.3259482576826671,-7.570203151578451,0.9207617313070244,-0.9344860133648347,0.9672024314975215,-0.20543748567658332,-12.72366682187823,26.513841938836187,-26.28104912866558,-62.407669,-106.20779055835648,0.0,62.407669,0.6326334638447002,0.089416,-0.51457739,-0.57183021,1.0,0.0,0.0,0.0,101.51063385344857
0.8555,73773.496,0.07628507585546496,-6.812545841866353,1.5472219646240362,-0.6730683560245687,0.9379034603612693,-0.5648444336470309,-11.976318630896667,26.290131080731427,-26.745743634628045,-61.54364,-106.37296266666925,0.0,61.54364000000001,0.6329054159583769,0.06820561,-0.52370423,-0.56613833,1.0,0.0,0.0,0.0,101.47038873274641
0.8759,73773.516,0.4040706042614386,-6.032937791797877,2.0814709756522287,-0.4244052455320029,0.9730201972679586,-0.8902802601426272,-11.30261175316565,26.35327736913759,-26.93994562599359,-61.737659,-106.51670412599614,0.0,61.73765900000001,0.6319318037773096,0.04850979,-0.52810234,-0.56516981,1.0,0.0,0.0,0.0,101.6144164860351
0.9015,73773.536,0.6529587789231543,-5.216195900858861,2.6874141013877555,-0.2391335959341439,1.0284685902836017,-1.2036477167374118,-10.842775586691618,26.532336435238534,-26.965427233807667,-62.580517,-106.27886018600047,0.0,62.580517,0.6317186265462454,0.02913585,-0.52795023,-0.5668785,1.0,0.0,0.0,0.0,101.64593237838868
0.9186,73773.556,0.6848185910487627,-4.250322984902448,3.4426733253084407,-0.13386226412041974,1.0500562493108285,-1.5104542657202151,-10.311839458813342,26.69467284025888,-27.049638947500277,-63.736801,-106.23185529688746,0.0,63.736801,0.6299630710759084,0.01010369,-0.52706271,-0.57030636,1.0,0.0,0.0,0.0,101.90520392059787
0.9356,73773.576,0.4644298139808365,-3.106643367346073,4.29968698346466,-0.10086317020401259,1.0008285436772901,-1.782220052654111,-9.432756086516896,26.928936505854512,-27.182294162730905,-65.706955,-106.76532071783473,0.0,65.706955,0.624066167498934,-0.01075479,-0.52534872,-0.5783031,1.0,0.0,0.0,0.0,102.77264118321673
0.9654,73773.596,0.09440241303440189,-1.858294224216913,5.167887433663559,-0.1302868088635567,0.8590489120940684,-1.9859548697281335,-8.308218689995542,27.21050416757842,-27.3216582552921,-68.230156,-107.6363636085864,0.0,68.230156,0.6151712141610897,-0.03168425,-0.52250355,-0.58953416,1.0,0.0,0.0,0.0,104.07127586434355
0.9734,73773.616,-0.25912126712937056,-0.593033470091691,5.932733162459442,-0.20707023383948187,0.6060668009786456,-2.111029451829084,-7.153014531818561,27.450398992694765,-27.492367710124537,-70.911354,-108.52724988656331,0.0,70.911354,0.6050936189020784,-0.05247562,-0.51889086,-0.60154825,1.0,0.0,0.0,0.0,105.52884215787111
0.9923,73773.636,-0.5020586183397491,0.5893164846786405,6.415836561999402,-0.310833599575306,0.2402867546489959,-2.1634519631880913,-6.193270923992263,27.673694853642814,-27.65319159205882,-73.355629,-109.24491779582847,0.0,73.355629,0.595692111928587,-0.07099286,-0.51490891,-0.61235589,1.0,0.0,0.0,0.0,106.87602614123419
1.0223,73773.656,-0.7117461771192177,1.7061078023111333,6.412094682868279,-0.409069296108585,-0.21954665671265333,-2.1556072323943503,-5.103581800490353,27.893619653351752,-27.903531691794136,-75.72525,-110.46320116486588,0.0,75.72525,0.5830922629550352,-0.08739096,-0.51370376,-0.62327737,1.0,0.0,0.0,0.0,108.66333767858907
1.0333,73773.676,-0.9181087992949664,2.682798918460209,5.802852440526525,-0.49358181214769326,-0.7174061193451968,-2.0948173884283023,-3.7446536632192657,28.16802235295664,-28.190467078464017,-78.145218,-112.4400527631882,0.0,78.145218,0.5658030259790334,-0.10025037,-0.51592582,-0.6353246,1.0,0.0,0.0,0.0,111.08385307065967
1.0546,73773.696,-1.0711307340330247,3.4427841301210407,4.616035872421932,-0.5629462440323187,-1.1949495785667748,-1.9896162684458836,-2.313982958726827,28.3939926420369,-28.531459838140833,-80.260178,-114.8762911496398,0.0,80.260178,0.5459576875465354,-0.10912355,-0.52179867,-0.64633459,1.0,0.0,0.0,0.0,113.81973406277876
1.0734,73773.716,-1.1306109903858639,3.8930572508647496,3.0031545152106798,-0.6009671402679434,-1.5932862189321388,-1.8573114476584185,-0.9444735752221423,28.55707342722121,-28.878986737833934,-81.96843,-117.57958179341156,0.0,81.96843,0.5251160166560735,-0.1136279,-0.53041959,-0.65574151,1.0,0.0,0.0,0.0,116.64789246867484
1.0923,73773.736,-1.0508137106442277,4.001519289036106,1.1976861259212832,-0.5869022423678226,-1.863752927293707,-1.7219166562376014,0.2862319251882184,28.789385879954725,-29.079884065550353,-83.543045,-120.4111888403369,0.0,83.543045,0.5043079274919036,-0.1135677,-0.5390327,-0.66499597,1.0,0.0,0.0,0.0,119.42915636178795
1.1146,73773.756,-0.8107833496415982,3.926237542851159,-0.5768078058313257,-0.5051707164728741,-1.9992478088942898,-1.5824423911404637,1.396513786198966,29.022204137968988,-29.226578917297722,-85.057983,-123.33703700408701,0.0,85.057983,0.483162211167805,-0.11105964,-0.54769689,-0.67397934,1.0,0.0,0.0,0.0,122.21572900413665
1.1326,73773.776,-0.4194966871952279,3.752091809645794,-2.0914780182101884,-0.35399900014386854,-2.0138363010816573,-1.4349811849647782,2.3445391612942412,29.393946879722186,-29.239429107716226,-86.76886,-126.19846020353337,0.0,86.76886,0.4625676306709404,-0.10655215,-0.5542739,-0.6837092,1.0,0.0,0.0,0.0,124.89416694671974
1.1524,73773.796,0.05116464885333327,3.5396771205561124,-3.2058722125715846,-0.1399512566533102,-1.951025631504106,-1.26904846595049,3.079305021322412,29.986392573004682,-29.094567541381913,-88.710373,-128.84909493406914,0.0,88.710373,0.443775324594647,-0.10004441,-0.5579018,-0.69411826,1.0,0.0,0.0,0.0,127.30997804411125
1.175,73773.817,0.5112401195253424,3.3170406797704906,-3.9077484506463884,0.1220835876156115,-1.8662468125305083,-1.0737208070012136,3.6511702705451263,30.768259709584072,-28.825798540897956,-90.842674,-131.2928443632035,0.0,90.842674,0.4268776420839308,-0.09182865,-0.559102,-0.70480347,1.0,0.0,0.0,0.0,129.46085993331374
1.1932,73773.8369,0.8967056547269201,3.0800528145485906,-4.29073700610904,0.4136902997599451,-1.807349655239431,-0.8452440205959943,4.150371863042503,31.664984734508916,-28.434879451914327,-93.152496,-133.65127726367615,0.0,93.152496,0.4113033829291164,-0.08144559,-0.55867046,-0.71560007,1.0,0.0,0.0,0.0,131.4265247768645
1.2153,73773.857,1.224969047184302,2.8077135881533164,-4.509087319548872,0.7073257912485145,-1.8002445510687466,-0.5923572691418559,4.449205148902836,32.60473515194218,-27.897497764452773,-95.628777,-135.73805872573038,0.0,95.628777,0.3983189269907443,-0.06953626,-0.55589581,-0.72628272,1.0,0.0,0.0,0.0,133.0537430564944
1.233,73773.877,1.5137837296398038,2.457947862350011,-4.6849024985608825,0.9769272456766646,-1.844184566583304,-0.334276506188749,4.675036384534835,33.580629378288485,-27.06741047872209,-98.565483,-137.89621295492384,0.0,98.565483,0.3863829986823039,-0.05312505,-0.55077791,-0.73792249,1.0,0.0,0.0,0.0,134.54074923619768
1.2542,73773.898,1.8189737264799997,2.004246693758142,-4.8700040553098685,1.2005021684192543,-1.9239397957776503,-0.09360019752380366,4.852406563947849,34.50477328603963,-25.94823323769255,-102.13784,-140.2502751251699,0.0,102.13784,0.3746265180287537,-0.03156063,-0.5435999,-0.75043857,1.0,0.0,0.0,0.0,135.9975374869297
1.2747,73773.9179,2.190972854399069,1.46335308511738,-5.062858016714491,1.3820781789896768,-2.0161210496130897,0.10503057447077191,4.860190853462175,35.21839077062794,-24.760285271098674,-106.070564,-142.60923587558045,0.0,106.070564,0.3637907908341248,-0.00690303,-0.53545904,-0.76216286,1.0,0.0,0.0,0.0,137.33363032049408
1.2936,73773.938,2.6018530233187853,0.9178324875376841,-5.235971377238481,1.5505655369739917,-2.0929411683159493,0.2518394534700745,4.709655013443738,35.57940553649342,-23.793179122533584,-109.902908,-145.0015748301438,0.0,109.902908,0.353696978828471,0.01985991,-0.52911502,-0.77106506,1.0,0.0,0.0,0.0,138.57278731474855
1.3167,73773.958,2.9608280031990692,0.45361725215426585,-5.323880002849744,1.7348681933439016,-2.1395792381230674,0.3369382266655707,4.603148941640335,35.73440110613403,-22.909160383603734,-114.349152,-147.7422446215805,0.0,114.349152,0.342214679579037,0.05034561,-0.52368957,-0.7785266,1.0,0.0,0.0,0.0,139.97627622890298
1.3362,73773.978,3.2369584047388456,0.20208069704102982,-5.282148135819652,1.9639673087182434,-2.1567363244512325,0.3579781530678945,4.398500681822513,35.71758663035419,-22.15579927931553,-119.334747,-150.4417361459638,0.0,119.334747,0.3309479869553364,0.0810805,-0.51780647,-0.78471386,1.0,0.0,0.0,0.0,141.34735093309752
1.3536,73773.998,3.4811853141340854,0.2911401346169318,-5.074177618236891,2.247199950689568,-2.1574566423475185,0.33056927119121005,4.010602262907209,35.53494584570241,-21.57099343744203,-124.566605,-152.8543176384459,0.0,124.566605,0.3209425468058862,0.10989334,-0.5108968,-0.78987581,1.0,0.0,0.0,0.0,142.56012861490203
1.3771,73774.018,3.850434857673464,0.7851857512492164,-4.684305139683606,2.5513310930194346,-2.152803317512306,0.28263023575629664,3.5831635453749815,35.290407004866566,-20.970300335501076,-130.561066,-155.21190420970356,0.0,130.561066,0.3103038975254386,0.1380212,-0.50166065,-0.79561186,1.0,0.0,0.0,0.0,143.8449085696278
1.396,73774.039,4.558183429784911,1.6084347973677375,-4.093046318235823,2.8031665799337784,-2.128980118781282,0.23995402626673568,3.3876980890886053,35.17947603214981,-19.987805352954684,-138.441116,-157.9920865356852,0.0,138.441116,0.2950464998271367,0.16794555,-0.48738217,-0.80448771,1.0,0.0,0.0,0.0,145.67934855012567
1.4195,73774.059,5.730684004507676,2.6193471609694456,-3.2410828657947377,2.9422926649329346,-2.0042323167500697,0.21838748555932397,3.245438235948801,35.24694852378222,-18.538489294765068,-147.264236,-160.9620859879907,0.0,147.264236,0.2767335021088834,0.20042211,-0.46658838,-0.81580931,1.0,0.0,0.0,0.0,147.8693075122695
1.4352,73774.079,7.06686954958624,3.766086428297572,-1.9559159463740858,2.9391577594058935,-1.6640647536863835,0.2954296700217598,2.95176819085954,35.263520901547786,-17.01236000038037,-155.605118,-164.12096871933363,0.0,155.605118,0.2588613658717014,0.23936693,-0.44422835,-0.82362336,1.0,0.0,0.0,0.0,149.99497929213996
1.4566,73774.099,7.990592849106506,4.811877193507324,-0.10641200583758703,2.7541194171745653,-1.1265041809887393,0.516030239369587,2.870442772792706,35.11658593247974,-15.536373031035275,-163.473694,-167.83821208132693,0.0,163.473694,0.2382888928034361,0.28106174,-0.42269909,-0.82797837,1.0,0.0,0.0,0.0,152.42885717560551
1.4858,73774.119,8.190800018702529,5.487005766307923,1.9548446556204304,2.409709964033811,-0.5064231342469513,0.8335201294913267,2.879536429101525,34.698072128022496,-14.37899731997536,-168.787781,-170.8181941757539,0.0,168.787781,0.2191262804381418,0.31053418,-0.4025625,-0.83276385,1.0,0.0,0.0,0.0,154.68455912998482
1.4968,73774.139,7.570281270338134,5.700098203477411,3.805958615427688,1.980273182126625,0.0913291332992755,1.2000221667726436,2.237111587150112,34.118476152692324,-13.469328668230283,-170.171143,-171.21787850570576,0.0,170.171143,0.2117005605145823,0.32614556,-0.37965846,-0.83944708,1.0,0.0,0.0,0.0,155.55594385114438
1.5218,73774.159,6.162520379605249,5.393056165324171,5.282613370126928,1.4938652227795217,0.5648175873664018,1.5847323384864263,0.8269015919899774,33.41286696766242,-12.731036822824763,-168.685623,-169.08381105618375,0.0,168.685623,0.2185134181294547,0.33651254,-0.35421756,-0.84471363,1.0,0.0,0.0,0.0,154.75653222688354
1.536,73774.179,4.467480832401971,4.543686687688285,6.226857759975175,1.0025709154677984,0.8578551185337614,1.9091122059177326,-0.6375936868895034,32.467257159029764,-12.401867096353223,-165.835297,-165.67196557951704,0.0,165.835297,0.2331518985203052,0.33959922,-0.33370131,-0.84791273,1.0,0.0,0.0,0.0,153.03458296262357
1.5565,73774.199,2.7141233720887623,3.1981246550634816,6.732002399930021,0.5506613927712497,0.9900423107963662,2.1369008831252354,-1.8357754117638612,31.43652019306971,-12.256989128279173,-162.701706,-161.9760290203719,0.0,162.701706,0.2507312933732607,0.34003139,-0.31815091,-0.84870046,1.0,0.0,0.0,0.0,150.95841886214393
1.5795,73774.219,1.0217853260550318,1.5692951687647723,6.935293729428217,0.16155958674451323,0.9992765801819442,2.2560597193770535,-2.84655889978745,30.451451500265716,-12.15829295539805,-159.347427,-157.97560586993026,0.0,159.347427,0.2713155450150888,0.34086058,-0.30573225,-0.84659892,1.0,0.0,0.0,0.0,148.51487111198705
1.5983,73774.239,-0.4726952520224268,-0.08572768977457823,7.00203061651796,-0.14861469857396348,0.90088008395215,2.2783762085718124,-3.654418389017243,29.611245419833466,-12.015698623427063,-155.874374,-153.77106199072065,0.0,155.874374,0.2934426293083454,0.34183824,-0.29516175,-0.84256607,1.0,0.0,0.0,0.0,145.87165183704522
1.6172,73774.259,-1.5061710983821648,-1.371506856323002,7.053146056508265,-0.3572292197158994,0.7177620255011179,2.2284301741230674,-4.108238346522349,28.921483565576366,-11.963658658558657,-152.320328,-149.91736559115557,0.0,152.320328,0.3144029790246418,0.33664739,-0.28863403,-0.83935076,1.0,0.0,0.0,0.0,143.35044809336873
1.6379,73774.279,-2.0702568553157157,-2.1510640319014787,7.032692834909842,-0.5205136259865528,0.4644586247349808,2.13026946789969,-4.406604867805376,28.398981136513033,-11.921174892611909,-148.768967,-146.24432238305218,0.0,148.768967,0.3349259407563598,0.32989383,-0.28341004,-0.83586687,1.0,0.0,0.0,0.0,140.8639309911514
1.6596,73774.299,-2.4022139196417704,-2.5290589699544306,6.71933165024064,-0.7277287865388955,0.17589025943965475,1.974940950606705,-4.672501251229231,28.054867873396088,-11.76682798660206,-145.819809,-142.57642971710715,0.0,145.819809,0.3546456733079729,0.33202568,-0.27706489,-0.8289876,1.0,0.0,0.0,0.0,138.45653983136327
1.6752,73774.319,-2.687846227923993,-2.4477013196167574,6.09113534481202,-1.002262796316427,-0.07148500896012416,1.7503831048864658,-4.729939931060593,27.783297557102795,-11.756873863718479,-143.757248,-139.44602240672853,0.0,143.757248,0.3712546546503424,0.34134319,-0.2745983,-0.81868833,1.0,0.0,0.0,0.0,136.41396818268117
1.6952,73774.339,-2.9201822967356224,-1.9102965885752399,5.343630657674897,-1.294416459996684,-0.2502548747667087,1.499739382090588,-4.620949469667883,27.480966693219905,-12.082479504191992,-141.828781,-136.96868738767938,0.0,141.828781,0.3858752725623187,0.34741828,-0.27836967,-0.80802917,1.0,0.0,0.0,0.0,134.60382198897003
1.7153,73774.359,-3.0995413243900254,-1.059302374289095,4.585573302197236,-1.5435516956069626,-0.4012506621074813,1.2998572772535102,-4.472720507135455,27.13387288075917,-12.72345679278088,-139.386292,-135.07167448249382,0.0,139.386292,0.4000358441345202,0.3444784,-0.28729603,-0.79922897,1.0,0.0,0.0,0.0,132.83916142606742
1.7371,73774.379,-3.3235319834432566,-0.08425563047577445,3.7089090762054404,-1.7245377735658876,-0.5766395655099745,1.1910325191027042,-4.370169421152046,26.806019829259206,-13.545038946909543,-136.601059,-133.50255906535767,0.0,136.601059,0.4140085504404387,0.33821046,-0.29984236,-0.79012984,1.0,0.0,0.0,0.0,131.08620862309496
1.7577,73774.4,-3.6090797174874383,0.8786880776701476,2.565577444179052,-1.848267918680743,-0.7801417669920347,1.1652677237951656,-4.303374205356186,26.59195330616288,-14.402339702255686,-134.045258,-132.1641198387538,0.0,134.045258,0.4267243298685232,0.33639479,-0.31501049,-0.77814734,1.0,0.0,0.0,0.0,129.4802864515708
1.7978,73774.42,-3.648146826814463,1.6913883090554567,1.2118474531590522,-1.9325720495928724,-0.975543334715504,1.2245350727383917,-4.47131064156937,26.642977269465558,-14.978898237544243,-131.595566,-130.66961932026408,0.0,131.595566,0.4384613313681547,0.33578083,-0.32601023,-0.76728106,1.0,0.0,0.0,0.0,127.98850165456088
1.8075,73774.44,-3.48182231949856,2.349913801284743,-0.2955774795955506,-2.017836269583027,-1.1212540929335062,1.336760833548236,-4.927158221684325,26.84200693922263,-15.451289841770457,-128.981827,-128.74905919417333,0.0,128.981827,0.451070586040343,0.33718866,-0.33491722,-0.75542676,1.0,0.0,0.0,0.0,126.37521518274089
1.82,73774.4599,-3.167065903083273,2.8169966198289664,-1.9061687116822075,-2.1315923034571425,-1.1717927081143,1.4803051722322964,-5.488520854539434,27.06977752458102,-16.00907193054165,-126.103241,-126.89020950228284,0.0,126.103241,0.4635298702752463,0.33798406,-0.34506956,-0.74285519,1.0,0.0,0.0,0.0,124.76976159390433
1.8415,73774.48,-2.816985548785878,2.900284316071902,-3.531621968444334,-2.2739096824656926,-1.1286335943984558,1.6156529880594959,-6.132542348370562,27.346341523483012,-16.53502768538404,-123.158432,-124.93934370378122,0.0,123.158432,0.4756296355593396,0.33995721,-0.35471919,-0.72964364,1.0,0.0,0.0,0.0,123.19929309169801
1.8603,73774.5,-2.5003164529594866,2.5141423084326835,-5.0358054778567105,-2.4164942376464906,-1.0163083615829058,1.718108869870898,-7.0156130187081125,27.57614867788352,-17.02821733156994,-119.534454,-122.16652928045119,0.0,119.534454,0.4902875237379566,0.34268436,-0.36266911,-0.71460247,1.0,0.0,0.0,0.0,121.28103714720746
1.8799,73774.52,-2.1818447958137046,1.7363588724519896,-6.285136955478398,-2.5243667732943726,-0.8471653129695783,1.7935777240083401,-8.121302871045792,27.64452080978539,-17.56145055147523,-114.586006,-118.59863021208575,0.0,114.586006,0.5084671254015397,0.34143385,-0.36966732,-0.6987347,1.0,0.0,0.0,0.0,118.87644085081408
1.8975,73774.541,-1.8107350968180236,0.7158586748495899,-7.2068667995387425,-2.5778222103486357,-0.6315051224162018,1.8535205396383785,-9.274903037442943,27.567000488909272,-18.097296109073785,-108.617722,-114.84077107705019,0.0,108.617722,0.528353184202333,0.33447817,-0.37622523,-0.68368256,1.0,0.0,0.0,0.0,116.21149299374198
1.9238,73774.561,-1.4012322192803175,-0.4040966251742313,-7.8091835672578185,-2.6051081504778466,-0.3671959523163793,1.8732434600886592,-10.134306064347937,27.267178047133942,-18.907840255953595,-101.849472,-111.54948917440376,0.0,101.849472,0.5472916307228657,0.3265371,-0.3880882,-0.66575742,1.0,0.0,0.0,0.0,113.6371896058753
1.9428,73774.582,-0.978234587788833,-1.5855873980594481,-8.06139455427395,-2.6252812445019713,-0.06294314293243505,1.84718632840045,-10.680874302762083,26.849568821106516,-19.881422553534243,-94.59008,-108.62263728474227,0.0,94.59008,0.5642649037079285,0.31999046,-0.40340209,-0.64535105,1.0,0.0,0.0,0.0,111.29747905824235
1.9666,73774.602,-0.6017703024567401,-2.8482875405178345,-7.941470342635993,-2.6320632790814513,0.2708614055943658,1.7913674676592777,-11.153477469110424,26.495869729019407,-20.693425575095794,-87.550713,-105.70178188149124,0.0,87.550713,0.5804972184412113,0.31178281,-0.41597718,-0.62671959,1.0,0.0,0.0,0.0,109.02895612444318
1.9899,73774.622,-0.3100251946525302,-4.1947810738957845,-7.44739096651892,-2.6322124645496334,0.604382102285298,1.6728976758029384,-11.758063844920848,26.12494854180715,-21.37633177990523,-80.645737,-102.15448429129417,0.0,80.645737,0.5986513464670091,0.30118805,-0.42491037,-0.60856676,1.0,0.0,0.0,0.0,106.4532632173484
1.9985,73774.642,-0.07658968262208776,-5.539482000475164,-6.5848923012252385,-2.6263389488074598,0.9001961815798982,1.4464037008262913,-12.491276083373815,25.686701960952718,-21.969253054375997,-74.091553,-98.05820720696252,0.0,74.091553,0.6188744618859038,0.28781843,-0.43099159,-0.5902552,1.0,0.0,0.0,0.0,103.53202355026612
2.0179,73774.6619,0.11941593670893802,-6.699611555829722,-5.399784872535378,-2.6021834023928943,1.1317319810454758,1.0917792230222723,-13.162042363927378,25.19926780190623,-22.49383321244705,-68.342041,-94.24483495981438,0.0,68.342041,0.6390472317296045,0.27055532,-0.43607315,-0.57293862,1.0,0.0,0.0,0.0,100.55837879143363
2.0379,73774.682,0.26129487235894056,-7.280492043707203,-3.7724845290501676,-2.5519977337401345,1.3010499210054942,0.5930698191841822,-13.595813226460098,23.947283729703457,-23.732785236801014,-61.436646,-91.44644705926605,0.0,61.436645999999996,0.6610127511175944,0.23784977,-0.4505271,-0.55092192,1.0,0.0,0.0,0.0,97.24568648921881
2.0594,73774.7019,0.26799044990666787,-7.297575081067198,-2.1483465808608777,-2.4933102633842474,1.3534671786402392,0.04858334204741488,-13.552253897317177,22.855137275274533,-24.75555832525732,-56.936554,-90.43220374539104,0.0,56.936554,0.6763245543974634,0.20141326,-0.46552631,-0.53413767,1.0,0.0,0.0,0.0,94.88581177152756
2.079,73774.722,0.16763494984265837,-6.91562752799135,-0.7846419778143296,-2.4835068655124664,1.2882248764662307,-0.4513026104389959,-13.190011780529787,22.14486593906593,-25.371370450608225,-54.58844,-90.49738855447045,0.0,54.58843999999999,0.6855049024503165,0.16631046,-0.47810939,-0.52329272,1.0,0.0,0.0,0.0,93.44934437757311
2.1044,73774.742,0.042968005430305656,-6.4025803960050025,0.30841890208208333,-2.5741006906233275,1.1357810402557549,-0.8438895396985809,-12.743667061350454,21.864698895936478,-25.58574310401346,-53.71405,-90.89953528364828,0.0,53.71405,0.6910061622576036,0.13387378,-0.48689026,-0.51722932,1.0,0.0,0.0,0.0,92.58038361648079
2.1239,73774.762,-0.08260464133044909,-5.859099672557277,1.3773224285093058,-2.7498347824042906,0.9326665971785355,-1.1218222828491693,-12.197264688244728,21.72521739004766,-25.831636941421962,-53.308231,-91.66717992699685,0.0,53.308231000000006,0.6936669726454431,0.09963506,-0.49664113,-0.51210016,1.0,0.0,0.0,0.0,92.15782576933972
2.1392,73774.782,-0.20122166151170218,-5.28430815913236,2.5811674160106417,-2.9300016305127103,0.710207684586762,-1.2880206459739885,-11.515177170720902,21.544797502803327,-26.41111554929287,-52.910675,-92.80852407057702,0.0,52.910675,0.6932327591089575,0.06155742,-0.51032811,-0.50517744,1.0,0.0,0.0,0.0,92.22688457831536
2.1591,73774.802,-0.3388739940487753,-4.63573028254314,3.8563157673171133,-3.0172430134985513,0.5072111246000368,-1.3594011460864164,-10.623007486482145,21.348537182530926,-27.372936156367132,-52.655941,-94.41046339647191,0.0,52.655941,0.6884943751591767,0.02099527,-0.52780688,-0.49694526,1.0,0.0,0.0,0.0,92.97791305476638
2.2584,73774.822,-0.37227417302999033,-3.990647794389012,4.995594041403653,-2.9647031199654488,0.33106411512590284,-1.3484101069288013,-9.85244783620545,21.326503850752406,-28.386217725478737,-52.64043,-95.56549789315119,0.0,52.64043000000001,0.6829181744352848,-0.01633426,-0.54310048,-0.48826,1.0,0.0,0.0,0.0,93.85579498377625
2.2609,73774.8429,-0.33874215919472306,-3.3044946553166654,5.894728999649454,-2.7524957929752283,0.17725685594618756,-1.3062726516499834,-9.119703121446463,21.442932574361606,-29.41485550616092,-52.857159,-96.53036670915935,0.0,52.857158999999996,0.6761635656314717,-0.04966974,-0.55651271,-0.48023885,1.0,0.0,0.0,0.0,94.91085386913753
2.2621,73774.863,-0.33594296311106175,-2.5542796760076314,6.520228686995537,-2.3912438490096046,0.01899724465644237,-1.2693371727214315,-8.34973835480616,21.644416650431598,-30.40513617454518,-53.188187,-97.55185822026158,0.0,53.188187,0.6679196884983473,-0.07800014,-0.56896812,-0.47336513,1.0,0.0,0.0,0.0,96.18658460432363
2.2642,73774.883,-0.3963534235639665,-1.7187554091428185,6.851420487988992,-1.9281301744070563,-0.17040894612604585,-1.230652794939222,-7.603782689629814,21.89772777224323,-31.295347293077064,-53.746044,-98.54372735557384,0.0,53.746044,0.6588197679260872,-0.10309682,-0.57968229,-0.46829051,1.0,0.0,0.0,0.0,97.58015282947015
2.2653,73774.903,-0.5399037826888522,-0.943336949149328,6.837132444792633,-1.4366933724706112,-0.4023542968019075,-1.1725291415396968,-6.949402145529741,22.418779098271827,-31.915502304484157,-54.618259,-99.43044006623936,0.0,54.618258999999995,0.6499752794871838,-0.12300737,-0.58680999,-0.46696398,1.0,0.0,0.0,0.0,98.92052384238907
2.2955,73774.923,-0.8367507182753009,-0.31974777771598584,6.470346142089383,-0.9887256160009883,-0.6649066763829753,-1.0867124419499967,-6.163865906116037,23.276422266276377,-32.283219868519616,-55.849518,-100.6911529937035,0.0,55.849518,0.6396061037124925,-0.13684745,-0.59180897,-0.47110397,1.0,0.0,0.0,0.0,100.47509217332914
2.3006,73774.943,-1.2545844631063048,0.1710214511239987,5.808563430481522,-0.6265408541829176,-0.941839894859852,-0.9712047470300148,-5.136223650135481,24.24434357554629,-32.57226251919228,-57.166191,-102.58348308769664,0.0,57.166191,0.6265201545544933,-0.14533545,-0.59757167,-0.47880915,1.0,0.0,0.0,0.0,102.41230012020559
2.3192,73774.9629,-1.631403429522004,0.5466644742426707,4.945539442724385,-0.34218757452622073,-1.2207286161218762,-0.8438757586148926,-4.111632781249858,25.071071937260967,-32.90605826355395,-58.068478,-104.78614693776757,0.0,58.068478,0.6127277427521032,-0.14895016,-0.60521638,-0.48589268,1.0,0.0,0.0,0.0,104.42600212288244
2.3431,73774.9829,-1.769477003022366,0.8036422872681386,3.9577462198598266,-0.0903598829441169,-1.494859658568814,-0.7383553639486317,-3.5427681618612286,25.69261793433337,-33.2712673336139,-58.413143,-106.55120537861382,0.0,58.41314299999999,0.6022902883597926,-0.14953029,-0.61233312,-0.48983186,1.0,0.0,0.0,0.0,105.93179166168103
2.3609,73775.003,-1.8457275435745681,1.014552372065609,2.825824645744392,0.1780556162695086,-1.7628382925763764,-0.6723296809897468,-2.821452853686522,26.122132544346368,-33.72299151781978,-58.606064,-108.83268065921193,0.0,58.606064,0.5893772959077104,-0.14802872,-0.62171668,-0.49415612,1.0,0.0,0.0,0.0,107.77433665346192
2.3788,73775.023,-1.8048590833531106,1.1232453905257778,1.5740715379124772,0.4788448812891344,-2.0210398391646285,-0.6483942056006928,-2.1136552868148692,26.669920633105143,-33.987967100219436,-59.130093,-111.16122489907448,0.0,59.130093,0.5761530022821112,-0.1446321,-0.6286912,-0.50187314,1.0,0.0,0.0,0.0,109.63916460424065
2.4047,73775.0429,-1.7308659603107999,1.1553252767130122,0.25386979913509755,0.8104865821084436,-2.272281445136659,-0.6473601442635909,-1.320333119528276,27.32557644294134,-34.067258853364976,-59.871162,-113.76601769963634,0.0,59.871162,0.5617558578036473,-0.13797152,-0.63435942,-0.51281804,1.0,0.0,0.0,0.0,111.64537161956531
2.4197,73775.063,-1.6335955022936353,1.0975881687163522,-1.0434636148670364,1.1546038456329184,-2.5160709936504357,-0.6633381083711991,-0.5923535053395366,28.115627380472514,-33.92299094062908,-60.710419,-116.48227102840131,0.0,60.710419,0.5477412309951658,-0.12682526,-0.63799137,-0.52617669,1.0,0.0,0.0,0.0,113.57562088025662
2.4436,73775.083,-1.5384041656153418,1.0041556980301731,-2.2550577859162253,1.4818622192491755,-2.7555454895193545,-0.686326519859438,0.12852343132034427,28.92484006434975,-33.65041294646507,-61.660446,-119.38674344152473,0.0,61.66044600000001,0.5332564842241335,-0.11226942,-0.64037418,-0.54125226,1.0,0.0,0.0,0.0,115.54850488769006
2.4613,73775.103,-1.4532085488166193,0.9311177254111422,-3.357194186413551,1.7671598918206484,-2.9912814910206196,-0.7049903251953322,0.905512743273567,29.688971181486863,-33.304907100202335,-62.818474,-122.55713929715769,0.0,62.81847400000001,0.5172502641461804,-0.09540268,-0.64194435,-0.55790496,1.0,0.0,0.0,0.0,117.70403052935843
2.4806,73775.123,-1.3599520390535575,0.9070575870933562,-4.348535924147763,2.0031572070017467,-3.2145294786837653,-0.7108403295160055,1.6576295770634095,30.455286863078847,-32.8405730175987,-64.262589,-125.9538987836158,0.0,64.262589,0.4999691492994568,-0.07590843,-0.6421693,-0.57609665,1.0,0.0,0.0,0.0,120.00408208985971
2.5016,73775.143,-1.2377552532806395,0.9504557990739743,-5.218887939257192,2.194630775222981,-3.4233188522832023,-0.681317065490776,2.397445712307661,31.22402456876192,-32.24648419543012,-66.061386,-129.69204477024795,0.0,66.061386,0.4806350827611986,-0.05355852,-0.64135373,-0.59563982,1.0,0.0,0.0,0.0,122.54622302795256
2.5205,73775.163,-1.055378028070646,1.0512617850122612,-5.928693857493334,2.3496818993654562,-3.639820350807355,-0.5886641664282033,3.1479621955399626,31.8814457562994,-31.628009791225107,-68.285362,-133.7600446804412,0.0,68.285362,0.4585433609832073,-0.03018264,-0.6401962,-0.61561012,1.0,0.0,0.0,0.0,125.4136937515532
2.5398,73775.183,-0.8133155879130716,1.145329233724562,-6.461757404392401,2.4973764309379547,-3.8950359284738587,-0.40760245277011675,4.013288494736679,32.3421074404874,-31.06168088725817,-70.498703,-138.52645878807203,0.0,70.498703,0.432494154278361,-0.00370968,-0.64101988,-0.63405722,1.0,0.0,0.0,0.0,128.74810023060752
2.5647,73775.203,-0.4383476641354125,1.1582644400431623,-6.850574478929708,2.6659986805342077,-4.204522659455388,-0.19427679708088086,4.642252824873337,32.749878702110486,-30.428766092360142,-72.764175,-143.631499925984,0.0,72.764175,0.4060208073363543,0.02771155,-0.64151418,-0.65026051,1.0,0.0,0.0,0.0,132.08977597919085
2.5793,73775.223,0.2239240410599086,1.1088240562550664,-7.173075695471221,2.8563086186823443,-4.5591493725393395,-0.03930958218062264,4.844851497398427,33.20215105177313,-29.63119715397849,-75.903145,-148.7448482620833,0.0,75.903145,0.3809118974469237,0.06323571,-0.63905424,-0.66521955,1.0,0.0,0.0,0.0,135.21964175125586
2.5996,73775.2429,1.3343477437903937,1.1160691725074772,-7.449390366446405,3.048270656041394,-4.893204013200265,0.02576819048929624,4.984629134296831,33.602491450930856,-28.688520178047263,-80.75782,-154.50425429418397,0.0,80.75782,0.3530328430945442,0.10356739,-0.63534522,-0.67895365,1.0,0.0,0.0,0.0,138.65414009495103
2.6268,73775.263,2.957640309527087,1.3153900857643197,-7.494058444786571,3.234110649746563,-5.073268155561296,0.0026779742649722937,5.3261734661068525,33.951615490309756,-27.540969421388834,-90.101692,-161.59195133046205,0.0,90.101692,0.3189682234109331,0.15128326,-0.63090217,-0.69089442,1.0,0.0,0.0,0.0,142.79892222224734
2.6397,73775.283,4.969682341978854,1.7833823580481851,-6.986895930193634,3.393399901867578,-4.9750768536431345,-0.08863150701211253,5.775959040710136,34.1840103835892,-26.298866180233336,-114.506798,-169.60940945383769,0.0,114.506798,0.2798531502096305,0.20221825,-0.62438112,-0.70066983,1.0,0.0,0.0,0.0,147.49711909495068
2.659,73775.3029,7.0332190173309606,2.4658296196928076,-5.720370891924568,3.5045633923473005,-4.536403886897586,-0.21857800705502634,6.0520673320075815,34.30779715764998,-25.052238864366366,-166.046463,-177.52574212855905,0.0,166.046463,0.2398054468909856,0.25052869,-0.61355859,-0.70941848,1.0,0.0,0.0,0.0,152.24988406107727
2.6909,73775.3229,8.620742487712336,3.0972858089899544,-3.5730985441659104,3.5279736168757894,-3.801561960455292,-0.2856552523205371,6.608465818001521,34.481074128700634,-23.48886283788866,159.458511,173.98019958042653,0.0,159.458511,0.1937962817855084,0.29866087,-0.59783107,-0.7182219,1.0,0.0,0.0,0.0,157.65117139315092
2.7028,73775.343,9.300576669627654,3.439391834485242,-0.8950501830891362,3.4547859946103334,-2.8796077816916767,-0.22233810150744185,7.104507028670596,34.63331715060351,-21.75410188272702,147.977585,165.84599300063635,0.0,147.97758499999998,0.1473456224925183,0.34310594,-0.57697302,-0.72640878,1.0,0.0,0.0,0.0,163.0537346312554
2.7207,73775.3629,9.109608100207948,3.471886559523774,1.5844811145545954,3.268311783956562,-1.942260420806483,-0.04395383368472702,7.091541254140932,34.54974427860023,-20.331807192408423,144.912628,159.86342414734304,0.0,144.91262800000004,0.1098124190368982,0.37541509,-0.55391037,-0.73497486,1.0,0.0,0.0,0.0,167.3909950686961
2.7426,73775.383,8.324645809176129,3.403310036377793,3.4904561994331456,2.982224571181937,-1.1330850600601994,0.21753852728807926,6.510112105305447,34.20742533177636,-19.34687506115582,144.953751,156.20029767809046,0.0,144.953751,0.0844729236123142,0.39686787,-0.53102767,-0.74388832,1.0,0.0,0.0,0.0,170.30856677996346
2.7618,73775.403,7.208377689746687,3.322126583281484,4.876940589126075,2.603055076321597,-0.5408649092200922,0.5293054837550499,5.656330433340157,33.74154710057439,-18.514981246159895,146.208237,153.91850586781914,0.0,146.208237,0.0676111174020666,0.41318396,-0.50786918,-0.7528457,1.0,0.0,0.0,0.0,172.2464217058004
2.781,73775.4229,6.081392245326892,3.156314414812485,5.819720325555,2.139777418707095,-0.18061337173370806,0.8422478502359316,4.58191287413398,33.272366441446955,-17.665671138953787,148.507324,152.89462580483075,0.0,148.50732400000004,0.0581592158314945,0.42591792,-0.48297164,-0.76285636,1.0,0.0,0.0,0.0,173.3316819190006
2.8002,73775.443,5.214199022264157,2.8775424814385326,6.311405267419637,1.6259644454655888,-0.016027281702866214,1.1297437486388993,3.4585037561302183,32.664832517727476,-17.096236530786044,151.248383,153.2940866476759,0.0,151.248383,0.0561502439976183,0.43229187,-0.46111575,-0.77287978,1.0,0.0,0.0,0.0,173.5622701077579
2.8337,73775.463,4.376409398467388,2.4690054629331897,6.458361896918866,1.0962378163800939,0.03332408522026464,1.413786491020451,2.6290489549405347,31.919341934256543,-16.85377862978205,153.273239,153.69952958543436,0.0,153.273239,0.0574526099564616,0.4385938,-0.44494998,-0.77868748,1.0,0.0,0.0,0.0,173.41278861290127
2.8473,73775.4829,3.4811655697670316,2.017219562378104,6.318666956964048,0.5927747782304855,0.05050595071742692,1.6746228806715355,1.8578625295598883,31.113021013776468,-16.92059839403048,155.062088,154.16112554509488,0.0,155.06208800000002,0.0643195694299132,0.4469724,-0.43303308,-0.78010321,1.0,0.0,0.0,0.0,172.6244288245433
2.8637,73775.503,2.55305840907007,1.5573512422331612,5.981642066792457,0.14317513233123091,0.06811226842952867,1.8813629706834516,1.0138904731411778,30.38051173198562,-17.090369185024816,157.13063,155.04844441893258,0.0,157.13063,0.0763904696636524,0.45607874,-0.42249435,-0.77952242,1.0,0.0,0.0,0.0,171.23776084044619
2.8828,73775.523,1.638149559569635,1.1477790221556443,5.525293921022195,-0.25267592086853397,0.09035111230446324,2.009525463884824,0.08448899723671044,29.776960160702135,-17.25882478745146,159.563705,156.51311548585576,0.0,159.56370500000003,0.0924105638197645,0.46465474,-0.41244647,-0.77810293,1.0,0.0,0.0,0.0,169.39539936744578
2.9023,73775.5429,0.7972805971999346,0.8440566601618267,4.990786365388205,-0.6107966275204233,0.11244450893139724,2.0493192709788515,-0.859673318947471,29.26592474957132,-17.44481163788422,162.118881,158.41388695123624,0.0,162.118881,0.1111288588147568,0.4723438,-0.40402547,-0.77543867,1.0,0.0,0.0,0.0,167.2392131726601
2.9217,73775.563,0.11356970615170758,0.6512547084533216,4.3956345138884885,-0.9409564396135321,0.12635860833219126,2.0108968051671656,-1.7255927345187727,28.806098284902166,-17.65539345431158,164.548691,160.52640021448985,0.0,164.54869099999996,0.131080377091122,0.47892076,-0.39822891,-0.77127594,1.0,0.0,0.0,0.0,164.93594474996837
2.9476,73775.583,-0.3509704702981431,0.5691703869255207,3.7640749269160256,-1.2372960571838418,0.13261137457210825,1.9232140070388326,-2.459622713575235,28.33874445951317,-17.92998827779156,166.74028,162.75502447110998,0.0,166.74027999999998,0.1516211654952034,0.48367661,-0.39601284,-0.76566428,1.0,0.0,0.0,0.0,162.55822566332236
2.961,73775.603,-0.6817000121303436,0.5503082429808588,3.141100586448129,-1.49677732751804,0.1313337811837667,1.816135705541309,-2.9949186215700605,27.873717589712985,-18.238185261322553,168.491623,164.63608874480983,0.0,168.491623,0.1714178115078504,0.48836285,-0.39670071,-0.75812018,1.0,0.0,0.0,0.0,160.25947230947776
2.9836,73775.623,-0.9501888807483767,0.5767057807829552,2.568763845152926,-1.7091699932430193,0.12282717758469641,1.7204084442511616,-3.3775343124973225,27.445717158439066,-18.55731334809264,169.937515,166.25171458132326,0.0,169.93751499999996,0.1904669134947794,0.49289268,-0.39914507,-0.74930793,1.0,0.0,0.0,0.0,158.03993203328656
2.9992,73775.643,-1.1454323635619974,0.6977515136538033,2.0632751852411815,-1.861699093449263,0.11066100997536965,1.6680685230323158,-3.71822922245451,27.060124588312632,-18.93545877807238,171.493576,168.28249845053614,0.0,171.49357599999996,0.2099655387940686,0.49441445,-0.40331692,-0.74081326,1.0,0.0,0.0,0.0,155.75933452317477
3.0226,73775.6629,-1.3116060871684212,0.920570876671432,1.6056240513295421,-1.9631718536087162,0.08833215980462172,1.6621933068164707,-4.064601816856122,26.754597778347158,-19.380767800464024,173.195068,170.63733232103968,0.0,173.195068,0.2299345300675173,0.49418947,-0.40837783,-0.73221201,1.0,0.0,0.0,0.0,153.41356541869402
3.0386,73775.6829,-1.4805370599417182,1.20163437333437,1.162349463604615,-2.031180254511677,0.0524126872870847,1.6821732736878703,-4.436497445750762,26.570595108354322,-19.86487374559798,174.924118,173.01685844896585,0.0,174.92411800000002,0.2496862414597999,0.4941164,-0.41329944,-0.72297257,1.0,0.0,0.0,0.0,151.08210728991145
3.0605,73775.7029,-1.6637019862593199,1.4815544753176875,0.6937346063640728,-2.0870654226421093,0.0002275792546561073,1.6971875327988688,-4.942502314984969,26.476753713972656,-20.38405273635337,176.80101,175.54504347428943,0.0,176.80101000000002,0.2701800740456194,0.49544656,-0.41706699,-0.7124539,1.0,0.0,0.0,0.0,148.65003483270712
3.0842,73775.723,-1.7659877584261627,1.6851279302053515,0.1719379458293524,-2.1402149743159806,-0.060850924242450644,1.6937984724847592,-5.670977914685049,26.468181992040535,-20.861538494923373,179.372406,179.11207503089534,0.0,179.372406,0.2917265331547968,0.49564606,-0.41887891,-0.70268846,1.0,0.0,0.0,0.0,146.07730129746733
3.0996,73775.743,-1.775294368045298,1.7731709227899102,-0.4332995334358909,-2.211743160238754,-0.10793649521926996,1.6493388198696997,-6.401994847374992,26.506777621616493,-21.34122042415034,-178.010529,-177.14993241751384,0.0,178.010529,0.3122754605605915,0.4952946,-0.42098644,-0.69277537,1.0,0.0,0.0,0.0,143.60717211550195
3.1194,73775.763,-1.702140401615927,1.7180762516806203,-1.1084435537962296,-2.3079759839263896,-0.12204501290415759,1.5584644844479931,-7.0629271188401805,26.53467137461317,-21.872801500968812,-175.656509,-173.70415242079488,0.0,175.656509,0.3318632041732959,0.49540484,-0.42432979,-0.68145806,1.0,0.0,0.0,0.0,141.23619304791592
3.1467,73775.783,-1.6044642857461435,1.5095207131123245,-1.796206493983922,-2.4180012687940873,-0.08909587871694435,1.4335877447371383,-7.596982177442715,26.55451649839835,-22.434529893800594,-173.658951,-170.7537708550689,0.0,173.658951,0.3499341840188253,0.49554282,-0.42918319,-0.66916752,1.0,0.0,0.0,0.0,139.03342086137326
3.162,73775.8029,-1.535536936151823,1.1888823800013322,-2.4463830630929078,-2.5169904237775116,-0.007436928954464905,1.3047275960714244,-8.032150322773296,26.542619490289162,-23.006001649677515,-171.393539,-167.7459766138978,0.0,171.393539,0.3670592040689651,0.49298841,-0.43573201,-0.65754664,1.0,0.0,0.0,0.0,136.93127058873372
3.1816,73775.823,-1.4861370392101199,1.0126926641321399,-3.07373563526256,-2.5819021878078314,0.11724931802381827,1.2044861161832463,-8.801848620135292,25.659028281192537,-24.304199359078638,-165.28215,-161.72161809067416,0.0,165.28215,0.3958753977676216,0.480894,-0.44991168,-0.64000243,1.0,0.0,0.0,0.0,133.35883686652065
3.2051,73775.843,-1.4900239847000127,0.48815023642599176,-3.639166336006671,-2.632329595096955,0.21664029905331017,1.108858814545699,-9.054591009016882,26.13896692345625,-24.16663788591096,-161.627991,-157.9802209829805,0.0,161.627991,0.4062862079280434,0.47629657,-0.45091724,-0.63619709,1.0,0.0,0.0,0.0,132.0564946201623
3.2233,73775.8629,-1.4686418132918129,0.12807046458707227,-4.220942316311742,-2.6867330573952035,0.33448069316700757,1.0132135500945236,-9.373413291806944,25.98701155221392,-24.552791335457158,-154.822876,-153.07625854181558,0.0,154.822876,0.4241820514076949,0.46688414,-0.45801446,-0.62634778,1.0,0.0,0.0,0.0,129.80219817613812
3.2412,73775.883,-1.393125565189774,-0.2723788073161134,-4.7756281671711465,-2.7695261257202892,0.45442775240248084,0.9068504463717646,-9.660511842382892,25.855989609637522,-24.81352540187942,-145.589371,-147.5988647039619,0.0,145.589371,0.4422213370662644,0.4564667,-0.46413636,-0.61697316,1.0,0.0,0.0,0.0,127.50860541246935
3.2593,73775.903,-1.27438789071202,-0.7447163157901708,-5.248322098230817,-2.889916871047971,0.5758670801319544,0.7787428066495105,-10.00296379818979,25.584535940110165,-25.11312904111048,-132.074295,-141.361991980996,0.0,132.074295,0.462312604163837,0.44356468,-0.47081599,-0.60650617,1.0,0.0,0.0,0.0,124.9271268161298
3.2794,73775.9229,-1.1657086810482093,-1.3313395997038886,-5.565563202435979,-3.03662664528593,0.7038031960718306,0.6190932138290987,-10.229907416204714,25.200279520192627,-25.51670158373318,-114.490891,-136.04390891471934,0.0,114.490891,0.4821689594584928,0.42811978,-0.48012313,-0.59473383,1.0,0.0,0.0,0.0,122.34568750865893
3.3015,73775.943,-1.113012619176427,-2.0665420850960765,-5.641918968689409,-3.1768166590676206,0.8433789934855567,0.4336674925886138,-10.210679240150382,24.757063714878328,-26.04185393227166,-94.446396,-132.74601289959924,0.0,94.446396,0.4998692908915901,0.40997458,-0.49318096,-0.58208597,1.0,0.0,0.0,0.0,120.01729453658736
3.3215,73775.963,-1.1119591683670054,-2.959500041884893,-5.401808455530416,-3.2706598079030966,0.9801994341285037,0.246162731999305,-10.113669212107368,24.2551185331641,-26.632799553306036,-75.412437,-130.26640952114516,0.0,75.412437,0.5167925376304459,0.38876954,-0.50798887,-0.56897366,1.0,0.0,0.0,0.0,117.76530772942586
3.3481,73775.9829,-1.1224910859796104,-3.943277475885983,-4.817471933951623,-3.288100751382807,1.0943347359299085,0.07615511750326265,-10.155214524621398,23.659939110081112,-27.251729610957163,-61.218487,-127.2255941982332,0.0,61.21848700000001,0.5350128148301639,0.36343518,-0.52231914,-0.55575073,1.0,0.0,0.0,0.0,115.31043902493576
3.3697,73776.0029,-1.1041297338054306,-4.865499908784885,-3.9021476377998923,-3.2193211410754348,1.162665588331958,-0.08174525659959841,-10.447258805176952,22.809523913213987,-28.002114160065723,-51.541344,-123.19488644411632,0.0,51.54134400000001,0.5561086016263036,0.33308861,-0.53629643,-0.54053801,1.0,0.0,0.0,0.0,112.42578700117254
3.3801,73776.023,-1.1096081583612785,-5.6348382166108575,-2.7649667568925107,-3.0569541414449493,1.1925350651415914,-0.24107776994742197,-10.670036904729955,22.00058533596232,-28.753981168539873,-45.704006,-120.15355347506478,0.0,45.70400599999999,0.5745667757186549,0.30115914,-0.55032402,-0.52566117,1.0,0.0,0.0,0.0,109.86140224423201
3.4057,73776.0429,-1.1150243936148974,-6.134089391243195,-1.469084376848155,-2.801698424812269,1.1862462231587492,-0.3879367365956997,-10.86019622425437,21.190846257288108,-29.53551267446878,-42.105362,-117.85490258063155,0.0,42.105362000000014,0.5906547007378864,0.26665708,-0.56451488,-0.51121813,1.0,0.0,0.0,0.0,107.59303694829394
3.4239,73776.063,-1.054501375444452,-6.337277121332017,-0.14054754374449274,-2.4645374048985547,1.1484357353045644,-0.5099228312553757,-11.046975926449818,20.508171811207433,-30.244219439052294,-40.157471,-115.94568850236847,0.0,40.15747099999999,0.6041047258596451,0.2317863,-0.57720101,-0.49816823,1.0,0.0,0.0,0.0,105.67110777645718
3.4402,73776.083,-0.9156774695106731,-6.295534169396137,1.0846494645750777,-2.0679421258729476,1.0924073395471117,-0.6206372405840224,-11.086895372854887,20.080264225439038,-30.84889949020873,-39.257359,-114.72995444457607,0.0,39.25735900000001,0.6136155829934171,0.19914888,-0.58834261,-0.48751268,1.0,0.0,0.0,0.0,104.29721036080946
3.4602,73776.103,-0.6776840593818179,-6.085419056333042,2.1263260588470487,-1.6588539041758361,1.0155760433374696,-0.7414758329853498,-11.037460884558886,19.875400573991957,-31.3445547110796,-38.981663,-113.71935399863413,0.0,38.981663,0.620595876399559,0.1699492,-0.59721714,-0.47886294,1.0,0.0,0.0,0.0,103.28067681320618
3.4816,73776.123,-0.3658891913129283,-5.782955707122605,2.930128831820001,-1.2949185649701533,0.9132972616162055,-0.8934500362437412,-10.968243642365689,19.919939678757768,-31.675791736795766,-39.312099,-112.61066465196116,0.0,39.31209899999999,0.6261367842687658,0.14441745,-0.60278064,-0.47302413,1.0,0.0,0.0,0.0,102.46865375740907
3.5035,73776.143,-0.0884950375749507,-5.416688891820246,3.496542170190537,-1.0213921599498448,0.7845208532986359,-1.08807474593707,-10.774503111254031,20.254567260426057,-31.84219534973672,-40.203434,-111.79381654067595,0.0,40.203434000000016,0.6293759087762669,0.12237812,-0.60578936,-0.47109321,1.0,0.0,0.0,0.0,101.99181357534948
3.5224,73776.1629,0.03352176669127438,-4.909489078647321,3.934239897570439,-0.849650298399441,0.6286520173882293,-1.3164886299002514,-10.284001699109655,20.71568549689309,-31.999955087486704,-41.405399,-111.80577888289403,0.0,41.40539899999999,0.628970511824575,0.10153236,-0.60917085,-0.4722268,1.0,0.0,0.0,0.0,102.05158091715538
3.5428,73776.183,-0.015741197390663153,-4.2024351858151,4.355699661106643,-0.7587730803310173,0.44415370173637514,-1.5461992719023483,-9.527375405270835,21.133619204437977,-32.25165042904244,-42.798817,-112.48926501349244,0.0,42.798816999999985,0.6252464629945154,0.07975259,-0.61399275,-0.47509924,1.0,0.0,0.0,0.0,102.59944106250097
3.5651,73776.203,-0.18626049594291327,-3.314411036992766,4.773807732631816,-0.7106257113722563,0.2297833986468506,-1.7403108365889657,-8.635225850545236,21.481803489108426,-32.5919068868339,-44.374588,-113.45206496098375,0.0,44.37458800000002,0.6191592462521661,0.05693119,-0.61952662,-0.47915283,1.0,0.0,0.0,0.0,103.4904717148164
3.5843,73776.223,-0.42224334339466285,-2.3479693984061445,5.091304186419936,-0.6680639507117754,-0.008166045086678286,-1.8736158922212665,-7.673660989457923,21.925953485736095,-32.90760573867538,-46.223721,-114.5569354605484,0.0,46.22372100000001,0.6109822652836931,0.03532567,-0.62431878,-0.48546764,1.0,0.0,0.0,0.0,104.67887784721152
3.6037,73776.2429,-0.6731310350672848,-1.3534239627715463,5.187141188233177,-0.6048045576432055,-0.26538084718264343,-1.9380064911782098,-6.6442175453896875,22.498337682088824,-33.1620892329842,-48.208824,-115.87305880905403,0.0,48.20882399999999,0.6007602427334301,0.01668683,-0.62841624,-0.49386406,1.0,0.0,0.0,0.0,106.15126910727669
3.6244,73776.263,-0.8888586131729355,-0.3097136590113081,4.96852976435439,-0.5050840311121315,-0.5398804542788017,-1.9324221205231211,-5.51307892477824,23.05239305227253,-33.421500397339045,-50.100536,-117.52251611780532,0.0,50.100536000000005,0.5882789986946435,0.00078008,-0.63318437,-0.50299579,1.0,0.0,0.0,0.0,107.93004878339846
3.6427,73776.283,-1.0061135686035234,0.7708115090355876,4.387356751793,-0.3640307245182183,-0.8238181800907902,-1.8561125768370834,-4.283755946834123,23.45442136488642,-33.74405374733656,-51.79282,-119.49984572804351,0.0,51.792820000000006,0.5734996754959015,-0.01334614,-0.63944525,-0.51188844,1.0,0.0,0.0,0.0,110.01073775934209
3.6633,73776.3029,-0.9709413870250998,1.7417030466198407,3.456092632822539,-0.18732616260845103,-1.097463992159525,-1.7178598034037367,-3.0481784621715597,23.786587938217394,-34.05781177807275,-53.326969,-121.66693866945582,0.0,53.32696899999999,0.5572201969774583,-0.02472842,-0.64617831,-0.5209105,1.0,0.0,0.0,0.0,112.27245400372264
3.6804,73776.323,-0.762432311113721,2.428327984111618,2.261724444391419,0.009665927458561652,-1.3392853863684584,-1.5433586880363992,-1.9432123202087226,24.2333841165407,-34.24831083721323,-54.805054,-123.85037332843139,0.0,54.805054,0.5408112571194772,-0.03189368,-0.65167046,-0.53087813,1.0,0.0,0.0,0.0,114.52223655248508
3.7021,73776.343,-0.4336742565268148,2.7801793733413707,0.9309837916777646,0.21256135682438604,-1.536606898271843,-1.3648017425711862,-0.9940250203019705,24.847009146022565,-34.30572275177542,-56.102264,-126.13184494290279,0.0,56.10226399999999,0.5246647621296969,-0.03385134,-0.65612477,-0.5413698,1.0,0.0,0.0,0.0,116.70864410622418
3.7229,73776.3629,-0.04125698378785447,2.8592330562745354,-0.3968086175228045,0.40344232039323313,-1.6831191357926973,-1.2080146695556264,-0.1522445034242228,25.58306459839062,-34.262066513234934,-57.190853,-128.60260341986728,0.0,57.190853000000004,0.5084255281799309,-0.03118576,-0.66010088,-0.55208492,1.0,0.0,0.0,0.0,118.88197647436391
3.7407,73776.383,0.37391519564912734,2.753338543335119,-1.5792993112399465,0.5644222059288793,-1.7795115894777496,-1.090543660291923,0.6023781930216785,26.42635915851804,-34.09608962264848,-58.305813,-131.18205658067114,0.0,58.305813,0.4920498542191582,-0.02512861,-0.66291213,-0.56374019,1.0,0.0,0.0,0.0,121.0491963701601
3.761,73776.403,0.7488741677891486,2.5516553394941304,-2.503384822939166,0.6912673954948791,-1.84043812164409,-1.013452236280585,1.3113071411499888,27.29421988503342,-33.82789144123312,-59.559284,-133.8435100657208,0.0,59.55928399999999,0.4753025095088472,-0.01677179,-0.66454542,-0.57635546,1.0,0.0,0.0,0.0,123.24190356490018
3.7841,73776.4229,1.0268107400431892,2.3084158489554443,-3.1121342448849028,0.7947210725048466,-1.8917248245132658,-0.9648632912586375,2.00696057687872,28.074487385612613,-33.518759548713014,-60.932705,-136.5768805235439,0.0,60.932705,0.4579698835618939,-0.00717986,-0.66553223,-0.58930373,1.0,0.0,0.0,0.0,125.4876296204486
3.8125,73776.4439,1.179018265847204,2.0465539137458992,-3.4308038649668315,0.8956728964972005,-1.963064168845005,-0.9296595866286486,2.6745901808281847,28.702794597697636,-33.2202856042648,-62.32127,-139.36155612127047,0.0,62.32127,0.4402059714937246,0.0031467,-0.66638744,-0.60177785,1.0,0.0,0.0,0.0,127.76595266989709
3.8246,73776.465,1.2035653781316116,1.7648309593990392,-3.557314237402043,1.0122041237912702,-2.0788469065291917,-0.8979851617853442,3.4333384732663497,29.267215139389265,-32.84972775338322,-63.83057,-142.42701821610578,0.0,63.830569999999994,0.4206572842510214,0.01525061,-0.66715103,-0.61459285,1.0,0.0,0.0,0.0,130.24781691040724
3.845,73776.486,1.1777063565307024,1.4839855473891426,-3.633846452212012,1.1521352435594407,-2.2513889807840712,-0.8646968006595009,4.112181861956865,29.799893226328543,-32.39602635522593,-65.551674,-145.54301801848123,0.0,65.551674,0.4008338247395761,0.02877014,-0.66703272,-0.62735307,1.0,0.0,0.0,0.0,132.7393695156484
3.8654,73776.5059,1.1790179789726207,1.2150269356999392,-3.7637246032269704,1.3158672396052085,-2.4797710241075666,-0.8226852494009198,4.738743448020312,30.289637478146123,-31.88643592837122,-67.464714,-148.7945651430507,0.0,67.464714,0.380315717840313,0.04381115,-0.6664806,-0.63972193,1.0,0.0,0.0,0.0,135.29351937014656
3.8843,73776.526,1.2714454120808996,0.946890544505238,-3.9893595045690677,1.5018579448708733,-2.7474614442785974,-0.7704215311632785,5.394020593946351,30.76500810916885,-31.311048706751752,-69.646294,-152.36608720114995,0.0,69.646294,0.3581924607673651,0.0613206,-0.66570246,-0.65175009,1.0,0.0,0.0,0.0,138.02153944827802
3.9102,73776.5459,1.508434833387291,0.6807146249474186,-4.3091325778204315,1.7098221562109643,-3.026309370317926,-0.7081939395373377,6.110886611717013,31.24936697367683,-30.658021866705575,-72.265099,-156.39738502513768,0.0,72.265099,0.3339898625989203,0.08236782,-0.66466892,-0.66323566,1.0,0.0,0.0,0.0,140.97775255794943
3.9333,73776.5659,1.9539118530192372,0.43732958498657604,-4.687266422556582,1.9333206105906449,-3.2855624745460394,-0.6387762760878446,6.885516838008947,31.767785514541707,-29.896816880860065,-76.159744,-160.86488373973992,0.0,76.159744,0.3074855609304284,0.10663366,-0.66267604,-0.67449415,1.0,0.0,0.0,0.0,144.18447225235712
3.9479,73776.586,2.6694455330893563,0.26090670769419066,-5.0479485192468685,2.1663407798844374,-3.4949639283487652,-0.5558742939444019,7.713084560775351,32.30099334679206,-29.01150062325296,-83.153389,-165.74576812981988,0.0,83.153389,0.2784577527604941,0.1335638,-0.65939623,-0.68543315,1.0,0.0,0.0,0.0,147.66363975685
3.9673,73776.606,3.7056788930352145,0.20842958239494297,-5.2767251322230315,2.408201721481002,-3.6179809002648184,-0.44749008622518127,8.463611530014676,32.79837089156295,-28.0291979169242,-98.572006,-170.86918940331682,0.0,98.572006,0.2481707007029732,0.1624902,-0.65454525,-0.69539827,1.0,0.0,0.0,0.0,151.2614199150228
3.9905,73776.6259,5.028228466178662,0.3132137869596512,-5.214386760045344,2.6494351879038613,-3.613990466504338,-0.2969447423221355,9.181306663347272,33.25287829514536,-26.874585520060304,-142.197083,-176.37913099134644,0.0,142.197083,0.2159001000194752,0.1942004,-0.64767253,-0.70441014,1.0,0.0,0.0,0.0,155.0633209161517
4.014,73776.646,6.475329607067101,0.6054245223403267,-4.661542911885704,2.866401335168556,-3.440592920513708,-0.0661149471424072,10.036534758306821,33.610052913004075,-25.47849258193608,161.176453,177.202297858203,0.0,161.17645300000004,0.1795719154588016,0.23151065,-0.63904852,-0.71117771,1.0,0.0,0.0,0.0,159.31034781660054
4.0233,73776.666,7.894335744166405,1.125313280333594,-3.586776022025397,3.018682076043516,-3.0558267090845432,0.21601226487485853,10.543283904647776,33.85788660863096,-24.007064611858485,143.047256,170.88623475550048,0.0,143.047256,0.1453726922765319,0.27025521,-0.62635726,-0.71659297,1.0,0.0,0.0,0.0,163.28227687340873
4.0416,73776.6859,8.997660401704502,1.8355415275720433,-1.9695084119551876,3.0474361818661135,-2.4478036141701347,0.5423232951345218,10.652743145497187,34.03739757017613,-22.479572892672866,137.738876,164.84101785106813,0.0,137.738876,0.1146637393397537,0.30991775,-0.60855156,-0.72143483,1.0,0.0,0.0,0.0,166.83153912902844
4.0638,73776.7059,9.430897556959923,2.401298878686686,0.1205983489259026,2.8803410130731644,-1.686017806581991,0.8970846503207113,10.634664021332537,34.2158331407434,-20.737739237588922,136.930969,159.23717191644855,0.0,136.930969,0.0847567902955899,0.34706727,-0.58463281,-0.72839898,1.0,0.0,0.0,0.0,170.275920977473
4.0841,73776.726,8.951658829031878,2.6266160490547814,2.3050034833207036,2.5304855114614564,-0.8495230905765896,1.2637013956889693,10.20445934698189,34.23430990564948,-19.257410083205833,138.188065,154.98206300362585,0.0,138.188065,0.0622784418929167,0.37763193,-0.55828089,-0.73609644,1.0,0.0,0.0,0.0,172.85879484838733
4.1134,73776.747,7.5083338657410845,2.568982506286129,4.1565623343204585,2.0556882466283164,-0.026897008575773595,1.6029090229935665,9.02701717126692,34.04594399961506,-18.390023764812696,140.859207,152.61008254837867,0.0,140.85920699999997,0.054468050246951,0.40218565,-0.53252661,-0.74276197,1.0,0.0,0.0,0.0,173.75533085765986
4.1335,73776.7669,5.386341782076756,2.2716109451319575,5.44189888300223,1.521286248205523,0.6461158893873886,1.8609635733496976,7.482034115244393,33.55140859645427,-18.134825997580663,144.250473,152.24283632002752,0.0,144.250473,0.0590087009643713,0.41790247,-0.51108277,-0.74877894,1.0,0.0,0.0,0.0,173.234170613155
4.1535,73776.787,3.1753677521806876,1.7407055079793823,6.15942225864406,1.018662533896284,1.0681562973737377,2.0080061361191595,5.629428127422764,32.92489776960023,-18.10841369012561,149.171967,154.51838063879393,0.0,149.171967,0.0741892037402764,0.42161477,-0.49148342,-0.75840688,1.0,0.0,0.0,0.0,171.4907253777385
4.1732,73776.807,1.1230988348369033,1.0638842312686752,6.4905775532187775,0.5683635589460896,1.2163217931045158,2.0701686120218565,3.7576701731251667,32.24439276695226,-18.086231825246664,154.784851,158.17387601292103,0.0,154.784851,0.0957457391478854,0.42083669,-0.47328481,-0.76793927,1.0,0.0,0.0,0.0,169.01151363935168
4.1876,73776.828,-0.5221002068766407,0.337903853789542,6.505181499412213,0.18653797688594814,1.1381189997357128,2.0574897162464194,2.183132255331154,31.511706477272234,-18.117909121864443,160.119583,162.15265706149617,0.0,160.11958300000003,0.119840132217495,0.41975802,-0.45838025,-0.77416348,1.0,0.0,0.0,0.0,166.23424750246429
4.2109,73776.848,-1.7017719753093998,-0.31993516352274654,6.237147450074932,-0.12341452252431309,0.9276990503166676,1.9879401641902328,1.2788380724551924,30.797343599212844,-18.20068600226975,164.002609,165.18724944521418,0.0,164.002609,0.1404428922814786,0.42142075,-0.44842339,-0.77562672,1.0,0.0,0.0,0.0,163.85304936608136
4.2245,73776.868,-2.346083552960091,-0.7726268680297865,5.748319965726562,-0.3653128944463239,0.6843058101187302,1.8839059427995517,0.7798041037140386,30.192059106316762,-18.298176730681746,166.963409,167.5674942910737,0.0,166.963409,0.1586260050738347,0.42512536,-0.44137031,-0.7741437,1.0,0.0,0.0,0.0,161.74569271649762
4.2446,73776.888,-2.502112371455793,-0.8990824559154955,5.1146820592768805,-0.5588856165936252,0.47676840459107606,1.765903821578998,0.3863013465918499,29.692499986834633,-18.407732144871098,169.684616,169.8893308972944,0.0,169.684616,0.1764901253296327,0.42901605,-0.43569225,-0.77134216,1.0,0.0,0.0,0.0,159.6692282704895
4.2648,73776.908,-2.3395082334974475,-0.6725682669710782,4.361012299459315,-0.738166079965769,0.33802316187880166,1.6463676553105455,0.024009748455335433,29.261645226201914,-18.52231889559782,172.226624,172.18555587791187,0.0,172.22662400000002,0.1939354376662745,0.43283191,-0.43113095,-0.7675752,1.0,0.0,0.0,0.0,157.634916924797
4.2852,73776.9279,-1.978345900882007,-0.13570887406412968,3.4883538315979177,-0.9284322642194572,0.2841575370835283,1.5350830415314851,-0.3270759576928326,28.826630820274644,-18.699233059984792,174.615509,174.4904406824664,0.0,174.61550899999997,0.2112220914336084,0.435729,-0.42855245,-0.7628029,1.0,0.0,0.0,0.0,155.6120409285029
4.3116,73776.948,-1.511957658422277,0.599328440693192,2.499757066988913,-1.1471249500833767,0.323331440466031,1.4424144720625092,-0.6572071601492517,28.351752971804693,-18.969841031091207,176.850296,176.75656004589885,0.0,176.85029599999996,0.2284596811079043,0.43739071,-0.42855728,-0.75685811,1.0,0.0,0.0,0.0,153.5871926299593
4.3273,73776.968,-0.9957532312725152,1.3645630128602146,1.4178234270308039,-1.4044564229747114,0.4573944115305842,1.3810329573995976,-1.0082976524050329,27.893853464008373,-19.256559478982574,179.203156,179.18261668525338,0.0,179.20315600000004,0.245671776412672,0.43726599,-0.42990464,-0.75075018,1.0,0.0,0.0,0.0,151.5569258171387
4.3568,73776.9879,-0.5151782349014334,2.03025501614082,0.26836647020351023,-1.711238272245195,0.6894136718494139,1.3593891685742805,-1.4348252703796038,27.4783127614108,-19.543748001745207,-177.995224,-177.97430655927124,0.0,177.995224,0.2636492484151035,0.43486345,-0.43195394,-0.74484807,1.0,0.0,0.0,0.0,149.42658727662828
4.3713,73777.008,-0.2378274693682248,2.4841870004312594,-0.9234556769945392,-2.0829057170460787,1.0202624299942276,1.36670648263642,-1.8242732191003939,27.123039307868424,-19.83544977378368,-174.96051,-175.04401566321022,0.0,174.96051,0.2815883214512674,0.43086684,-0.43538415,-0.73858136,1.0,0.0,0.0,0.0,147.28995282204107
4.3865,73777.028,-0.28106821266541987,2.6447067719569586,-2.120542908020422,-2.5293487929415206,1.4271083696835354,1.3851300825396209,-2.255818715927964,26.82839386873271,-20.1361809233409,-171.021408,-171.52750272427252,0.0,171.021408,0.301507383100351,0.42442876,-0.43959191,-0.73192382,1.0,0.0,0.0,0.0,144.90367488084345
4.406,73777.0479,-0.6765090835059963,2.4827455910515352,-3.276849939085338,-3.058774776394785,1.8566629165517616,1.4049223874350436,-2.950745092937927,26.541332592952365,-20.484476938903583,-164.488068,-166.23814989621326,0.0,164.488068,0.3277171586948263,0.4129985,-0.44347724,-0.72481835,1.0,0.0,0.0,0.0,141.73945049767838
4.4267,73777.068,-1.410542153958895,1.9343756463713087,-4.298735200002678,-3.6660635267912975,2.2599005414137476,1.4276100063598565,-3.7049023191326587,26.36462162784313,-20.762784023896124,-155.18576,-159.66214226823777,0.0,155.18576,0.3575586321842556,0.39612105,-0.44676793,-0.71807963,1.0,0.0,0.0,0.0,138.09932248100208
4.4516,73777.088,-2.4294237992729846,0.9730108393881045,-5.0813200590741445,-4.314816889632123,2.620809930027827,1.428996732972189,-4.095696171240077,26.320551160495206,-21.04022379580621,-144.342697,-153.55549736948885,0.0,144.342697,0.3862715716687258,0.37524819,-0.45301419,-0.71046549,1.0,0.0,0.0,0.0,134.55459260620276
4.4646,73777.1079,-3.4931440756848455,-0.35009240541016884,-5.486312384592479,-4.928437222322951,2.9033581117643115,1.4359046689354575,-4.45364954331763,26.243947010404508,-21.488137545269076,-129.861191,-146.9325240816668,0.0,129.861191,0.418390449967691,0.34595177,-0.46190679,-0.70136219,1.0,0.0,0.0,0.0,130.5339769927481
4.4847,73777.128,-4.203735836934225,-1.8194868129407342,-5.395387746495188,-5.459200648495794,3.0336927356281236,1.4819722961036743,-5.610829950856979,25.612639815146363,-22.514199709834337,-108.794807,-137.5598548476455,0.0,108.794807,0.46527808867667,0.30135357,-0.47280824,-0.68494868,1.0,0.0,0.0,0.0,124.5435580925393
4.5047,73777.148,-4.387222391714673,-3.185268380170626,-5.076452443948321,-5.905777873121328,3.0349757625648572,1.5062208512056272,-7.01983896371903,24.628252451048976,-23.83255592032408,-89.496323,-128.06568727996418,0.0,89.496323,0.5157682656550446,0.25002387,-0.48570356,-0.65997213,1.0,0.0,0.0,0.0,117.9023584647204
4.5269,73777.1679,-4.267515899834066,-4.359702901488073,-4.947971468456526,-6.3031414436611115,3.0280927992412496,1.449867771402635,-7.852381975789281,23.78686726527368,-25.088354589936205,-76.41256,-120.92742441543784,0.0,76.41256,0.5562461574109908,0.20146583,-0.5011,-0.63158572,1.0,0.0,0.0,0.0,112.40682006327714
4.5447,73777.188,-4.085389186049422,-5.402134883012436,-4.932551408562203,-6.718769270800202,3.0486998275636603,1.3185108229916715,-8.380797180894321,22.81931134815004,-26.45396040170358,-66.336014,-115.01077044157189,0.0,66.336014,0.5907668121043524,0.15440579,-0.52002919,-0.59726298,1.0,0.0,0.0,0.0,107.57711517262997
4.5645,73777.208,-3.9173577002367317,-6.233324061884302,-4.591218334929221,-7.106562682460178,3.163552689282088,1.2542397288879068,-9.237350365939633,21.224767288235903,-28.048560352366266,-58.369205,-108.54445442143772,0.0,58.369204999999994,0.6257874931580172,0.09391078,-0.53964341,-0.55529791,1.0,0.0,0.0,0.0,102.51997854670219
4.5902,73777.228,-3.853436164059633,-6.882220024949753,-3.8838856328761233,-7.3776579275805085,3.4263424387286143,1.2872626022169293,-10.144736917100111,19.473308152878097,-29.474844308538998,-53.591759,-102.21255234654295,0.0,53.591758999999996,0.6554790994674354,0.02259635,-0.55525458,-0.51139897,1.0,0.0,0.0,0.0,98.08802439534564
4.6143,73777.248,-3.6194828560229464,-7.536697649370057,-2.809819690491187,-7.529983195377025,3.639461281971241,1.353193245145656,-11.410727519653289,17.602418851750954,-30.597624728541955,-49.877182,-95.07759272762411,0.0,49.877182000000005,0.683758477469967,-0.04707871,-0.56521279,-0.45912138,1.0,0.0,0.0,0.0,93.72390701199276
4.6307,73777.268,-3.1027435548434656,-7.987751578984859,-1.2118687609400371,-7.459383617471007,3.852397238191653,1.2990859808551114,-12.769555474805724,15.438859667819953,-31.580566963546143,-46.911072,-87.80428236313283,0.0,46.91107199999999,0.7067061589755967,-0.11818276,-0.57228303,-0.3988626,1.0,0.0,0.0,0.0,90.0649052305119
4.6453,73777.288,-2.2333122541827106,-7.870769545197499,0.7621648324655155,-7.127143723236557,4.0093906251855875,1.0219466829217008,-14.173395677030035,13.117417062661866,-32.2950381742372,-44.625881,-80.50620523325279,0.0,44.62588099999999,0.7232236368817881,-0.18793665,-0.57496881,-0.33322403,1.0,0.0,0.0,0.0,87.35744947037239
4.6702,73777.308,-1.1744232509194088,-6.893594099409134,2.580365052970473,-6.511081741999511,4.103897768100816,0.51636855654565,-15.54123624016013,11.043363114757607,-32.552581124382954,-43.563255,-73.32015879748846,0.0,43.563255,0.7329201912633512,-0.25657031,-0.56944942,-0.26967949,1.0,0.0,0.0,0.0,85.736468178801
4.6886,73777.328,-0.3083587140477979,-5.252923226143756,3.6066741382148955,-5.695840557860782,4.081416196678745,-0.19693064133620533,-16.534051870497752,9.630758329237311,-32.40642609864292,-43.691662,-66.87611553226732,0.0,43.69166200000001,0.735798380049067,-0.31953934,-0.55710262,-0.21478367,1.0,0.0,0.0,0.0,85.25055741665938
4.7112,73777.348,0.028449319574940013,-3.4781566303737543,3.626526135842976,-4.780583535379167,3.969725271437297,-0.9751692871855454,-16.951568872236376,9.29421144251889,-31.9493620962763,-45.127178,-61.42787145910348,0.0,45.127178000000015,0.7344545749087931,-0.3747761,-0.5379777,-0.17521229,1.0,0.0,0.0,0.0,85.47770305708221
4.7275,73777.3679,-0.20025105122125186,-1.912385435812173,2.951201268895085,-3.8703657448825,3.826374538048252,-1.6686169541406528,-16.782944692370215,9.974736108355994,-31.304662356864444,-47.771427,-56.80204971917186,0.0,47.77142700000002,0.731581258444488,-0.42350441,-0.51227468,-0.15168233,1.0,0.0,0.0,0.0,85.96175832643391
4.747,73777.3889,-0.6995937862164077,-0.6016248216794673,2.082682610117633,-3.0268661575363516,3.7047203098655324,-2.170174770855999,-16.171055686107884,11.397549825374588,-30.514388552221547,-51.527512,-52.528958092486945,0.0,51.527512,0.7289152149060031,-0.46873161,-0.47845677,-0.14160652,1.0,0.0,0.0,0.0,86.40894075675331
4.7657,73777.409,-1.106890588009418,0.47230858896099415,1.3894813424295478,-2.28707678010253,3.5851063507329215,-2.470199675887659,-15.240148064150894,13.163366939842385,-29.66487030224077,-55.511311,-48.57015566953046,0.0,55.511311000000006,0.7272237588323791,-0.50762016,-0.44066799,-0.1388492,1.0,0.0,0.0,0.0,86.69169183056545
4.7869,73777.429,-1.0735192772889817,1.3804797550338375,0.9449021287966346,-1.6694633943019772,3.4126148865541985,-2.6460682929177866,-14.452547886444941,14.786774808177704,-28.77330506160302,-58.87418,-44.42397422800374,0.0,58.874179999999996,0.727180027016062,-0.54045552,-0.40139511,-0.13416037,1.0,0.0,0.0,0.0,86.69899241981926
4.8099,73777.4489,-0.6040758942605864,2.084262946670923,0.5749737104143406,-1.1438351083109173,3.1815511688348797,-2.779305163468262,-13.861252351140163,16.47064292286012,-27.76718782716619,-60.985718,-40.35036898043494,0.0,60.98571799999999,0.7305602330345017,-0.56376493,-0.3632257,-0.12852214,1.0,0.0,0.0,0.0,86.13323810981956
4.8325,73777.469,0.0931593446967498,2.761890857466879,0.10691003624812723,-0.6309881473896368,2.889448307520648,-2.9424747637533626,-13.092609375440906,18.361743783822696,-26.708518942455584,-62.47625,-37.03500388773989,0.0,62.47624999999999,0.7355279474931357,-0.57918465,-0.32712474,-0.12858143,1.0,0.0,0.0,0.0,85.29630835932959
4.8466,73777.489,0.9610483176791544,3.6639209630779543,-0.4564071297145684,-0.059374177091152225,2.501799219916516,-3.159397737874667,-11.894952430040247,20.336157629894934,-25.707437343560173,-64.574669,-34.60621013265919,0.0,64.574669,0.7389672617912583,-0.59224552,-0.28998849,-0.13812786,1.0,0.0,0.0,0.0,84.71296744956886
4.8682,73777.5089,2.044704988158164,4.790193132465779,-0.9710704781794952,0.596647971977472,1.9787294574696421,-3.405050400028858,-10.389353649395217,22.20423793341601,-24.77708791220273,-67.099243,-32.92734657831568,0.0,67.099243,0.7408051674541926,-0.60280192,-0.25290874,-0.15451446,1.0,0.0,0.0,0.0,84.39990256216733
4.8884,73777.529,3.3574513076895016,5.868583678170145,-1.273385527299137,1.348137355849393,1.3252140726721335,-3.647416445809757,-8.782778087008072,24.058809178020475,-23.71378008247909,-68.871559,-31.88190183429002,0.0,68.871559,0.7443738433507927,-0.6065008,-0.217548,-0.17532036,1.0,0.0,0.0,0.0,83.78931005213546
4.9052,73777.549,4.70568820037716,6.59668338678314,-1.2983680814588663,2.194897629554725,0.5641110649413601,-3.8788730489096133,-7.053825746850128,25.940662319981957,-22.440357883628554,-69.528778,-31.710672051874997,0.0,69.528778,0.7506400859957021,-0.60132837,-0.18596318,-0.20090134,1.0,0.0,0.0,0.0,82.70829085747891
4.9292,73777.5689,5.793510546214336,6.668279305430215,-1.019501084660746,3.1021829284115756,-0.26784739765869847,-4.064234782597131,-4.718034255449284,27.935487905713252,-20.85724061121397,-69.881081,-33.05053063353022,0.0,69.881081,0.758475502935007,-0.58604246,-0.15658981,-0.23822002,1.0,0.0,0.0,0.0,81.34002940821225
4.9467,73777.589,6.262116389693296,6.006506317624682,-0.4075260549579234,3.9901250798240593,-1.0705963723569945,-4.136271056638974,-1.6631060315731663,29.931570710193455,-18.728264467688927,-70.106491,-36.48715717920494,0.0,70.106491,0.7677386771162081,-0.55652213,-0.13192347,-0.28888863,1.0,0.0,0.0,0.0,79.69748790752527
4.9696,73777.609,6.047330658467331,4.858746148249066,0.4150651198724731,4.774872179679672,-1.7383137240200293,-4.068506227810327,1.6105928355873242,31.59286689735864,-15.971024650755096,-70.286324,-41.72433499818718,0.0,70.286324,0.7774914376268147,-0.51249772,-0.11322476,-0.34645823,1.0,0.0,0.0,0.0,77.93707166731639
4.9892,73777.629,5.465379371208307,3.5907950819633325,1.236256397205457,5.403573884771505,-2.244400823930394,-3.9142440212229506,4.34544472112225,32.57980681912403,-13.013291842143135,-70.610764,-47.54857067146641,0.0,70.610764,0.7855600392765515,-0.46097854,-0.09851944,-0.40085924,1.0,0.0,0.0,0.0,76.45499049439118
5.005,73777.649,4.856478361413857,2.3196136233077658,1.9761632437237946,5.877729818069114,-2.606422264443764,-3.7838094131449322,6.169896434577598,32.90628103349426,-10.19856587723383,-70.880203,-52.925506097168096,0.0,70.880203,0.792203462598209,-0.40696955,-0.08330164,-0.44704619,1.0,0.0,0.0,0.0,75.21618415162934
5.027,73777.669,4.222108764725094,1.0218859494665864,2.5928121508039155,6.246134831829693,-2.858015303012458,-3.730403663440378,7.23218334027537,32.68854205122341,-7.56014904148911,-71.16407,-57.854174617614575,0.0,71.16407,0.7974857514589845,-0.3501046,-0.06611525,-0.48690042,1.0,0.0,0.0,0.0,74.21864877029816
5.0466,73777.689,3.3232635779854616,-0.18533094283196072,3.0074654259659432,6.560396619439553,-3.0288433186718526,-3.673743016044477,7.858816685290282,31.948253524299083,-5.109122047638345,-71.954231,-62.890702706628396,0.0,71.954231,0.7992678403328012,-0.28865689,-0.05052591,-0.52468586,1.0,0.0,0.0,0.0,73.87951395217759
5.0653,73777.7088,2.081497131512199,-1.2072991536769773,3.1797553216804744,6.801496532997694,-3.171686933609884,-3.4986016031698,8.497104444222668,30.63589085294356,-2.7562869387807307,-73.964554,-68.65750037825646,0.0,73.964554,0.7937443281085961,-0.22044963,-0.0369221,-0.56569308,1.0,0.0,0.0,0.0,74.92637070766028
5.0846,73777.7289,0.7930728612918552,-1.9486160810981694,3.1668415923754942,6.924863025815828,-3.3114529974074496,-3.1498901395033982,8.974910658385788,28.798204041710118,-0.8159524996212522,-77.020432,-74.54583403231838,0.0,77.020432,0.7805765473960288,-0.1502499,-0.02543094,-0.60620004,1.0,0.0,0.0,0.0,77.37321222312427
5.1087,73777.749,-0.04498212569122573,-2.739350669356175,3.039329568868933,6.886408528558524,-3.378599329301583,-2.802177764325327,8.809254030916758,26.680369397635086,0.7137551558030828,-79.928429,-79.1832709138972,0.0,79.928429,0.7660294688691558,-0.08142459,-0.00734685,-0.63758522,1.0,0.0,0.0,0.0,80.00266946466901
5.1293,73777.769,-0.457808703215719,-3.673134056817264,2.788327364545223,6.7303942280554105,-3.372299658524203,-2.500770852967306,7.822793796472217,24.48764544545151,1.6820590054770266,-82.022606,-82.01507770518367,0.0,82.022606,0.7544233408380442,-0.01562963,0.01334424,-0.65606636,1.0,0.0,0.0,0.0,82.04998390333341
5.1533,73777.7889,-0.7290024990529358,-4.444027370101823,2.381620276155413,6.475499082864198,-3.365403531546796,-2.233575361378205,6.348809993732919,22.274168041090704,2.0094622415541012,-83.615562,-83.46002401528628,0.0,83.615562,0.7447895315871021,0.04718501,0.02933943,-0.6649822,1.0,0.0,0.0,0.0,83.7179510570686
5.1684,73777.809,-1.0712760973023177,-4.784014232538768,1.933092024647543,6.082750397877443,-3.452025345917098,-2.03688372887427,5.007521906939187,19.998116993385644,1.9191948595054718,-85.920456,-84.73354845669661,0.0,85.920456,0.7305530948616145,0.10958388,0.0408104,-0.67276895,1.0,0.0,0.0,0.0,86.13443598910531
5.1915,73777.83,-1.5549577205014913,-4.6569923958531545,1.6947040702000606,5.557380587046786,-3.6617406269605204,-1.8998847658714322,4.006721861461713,17.756320216088394,1.5204276098572005,-89.544937,-86.40945640321289,0.0,89.544937,0.708291351514087,0.1708761,0.0472379,-0.68329591,1.0,0.0,0.0,0.0,89.80787100543881
5.2093,73777.8499,-1.9260381014211976,-4.271310820454636,1.8051855296674564,4.994332791824885,-3.9041817047139284,-1.8420527399899929,2.9655557693692924,15.74449515201378,0.7145104905338814,-93.205063,-87.72860638525754,0.0,93.205063,0.6856874463878876,0.22156283,0.05143331,-0.69144577,1.0,0.0,0.0,0.0,93.4206101605782
5.2295,73777.87,-2.257970959109628,-4.025893155246048,1.9804294917304919,4.509890335018398,-4.138693300395186,-1.8385326918750142,1.735747279644157,13.98295332002731,-0.22233861323030335,-96.362518,-88.12071929187323,0.0,96.362518,0.6663168468561125,0.267699,0.05355476,-0.69389552,1.0,0.0,0.0,0.0,96.43314047267056
5.2486,73777.89,-2.6336915471734654,-3.9096450404509757,1.868529539488451,4.142252912703956,-4.38659285218741,-1.8565873632691192,0.4568103344592007,12.421671047997977,-1.3163843308281848,-99.398674,-87.77126561156776,0.0,99.398674,0.6486371696557662,0.31200144,0.04892956,-0.69248164,1.0,0.0,0.0,0.0,99.12214211538833
5.2677,73777.9099,-2.969879391414343,-3.754621320003361,1.2385299883606713,3.857557453193184,-4.625265208388202,-1.899630268004798,-0.7323831820314255,11.037821292671508,-2.5922760283340676,-103.02774,-87.20025680077235,0.0,103.02774,0.62867317451029,0.355856,0.03643148,-0.69051379,1.0,0.0,0.0,0.0,102.09540108658601
5.2873,73777.93,-2.9669564989144153,-3.458623834944073,0.09776910945721085,3.595899969949735,-4.761331692242532,-2.0262053728019067,-1.8970652759956756,9.871166872515596,-3.9987543591908152,-107.486404,-86.75110288805034,0.0,107.486404,0.6045680060422021,0.39830607,0.02160522,-0.68948025,1.0,0.0,0.0,0.0,105.60447535652594
5.3063,73777.9498,-2.4705999937837,-3.03974246737506,-1.3781817547712123,3.3806087451059925,-4.635200255594122,-2.2794424151660464,-3.2291284193877297,8.972302312102375,-5.445528919679021,-112.287979,-85.49511759174673,0.0,112.287979,0.5791512003281792,0.44294041,0.01111505,-0.68429828,1.0,0.0,0.0,0.0,109.21827057323719
5.3259,73777.9699,-1.5878776892272173,-2.2135032565794583,-2.7896991482469353,3.1461678361642598,-4.250853326378719,-2.5579417962529796,-4.6471335140844925,8.280463725375792,-7.081523646220997,-117.391159,-83.81103208472287,0.0,117.391159,0.5533539228207868,0.48410428,-0.00219872,-0.6778183,1.0,0.0,0.0,0.0,112.80517648669502
5.3471,73777.99,-0.5793133892270248,-0.9762564528298685,-3.794297020733171,2.865368797097826,-3.6208394818985226,-2.813695969820259,-6.065315030390705,7.839012186795294,-8.810748120390915,-123.196747,-82.28107972331193,0.0,123.196747,0.524540192522147,0.52092385,-0.01918671,-0.67314768,1.0,0.0,0.0,0.0,116.72541120633758
5.3661,73778.0098,0.33626181733571325,0.527048181310362,-4.166436015666338,2.5419310554208594,-2.8108477629855395,-2.9814424494091254,-7.46388454850491,7.7431924883245475,-10.450887467232556,-129.69899,-81.8624103356575,0.0,129.69899,0.4911044421584043,0.55058581,-0.03809641,-0.67395872,1.0,0.0,0.0,0.0,121.17360153655058
5.3877,73778.031,1.1083465343264973,2.0433340694758773,-3.896749991144964,2.189640615420713,-1.9215981335922092,-2.9981626644996044,-8.888380187929991,8.073828451596722,-11.750677861029496,-136.236282,-83.67337093629256,0.0,136.236282,0.4538539642279894,0.57001835,-0.05459108,-0.6827265,1.0,0.0,0.0,0.0,126.01755902568185
5.4112,73778.051,1.7662483213398292,3.3271848765053784,-3.1253170607290173,1.8357896847910191,-1.0549587676909509,-2.803329275232809,-10.181130836666108,8.835004497991118,-12.60081453757102,-142.397202,-87.58284853218815,0.0,142.397202,0.4143529393188542,0.58209807,-0.06730106,-0.69637924,1.0,0.0,0.0,0.0,131.04285079997447
5.4335,73778.071,2.3194744100631883,4.262721816679728,-2.048915041856299,1.4567213773999925,-0.27093799040412364,-2.4046224281676474,-11.203820847405442,9.772262070783299,-13.051312883740607,-147.449799,-92.38653692558373,0.0,147.449799,0.3782141069004808,0.5895825,-0.07492176,-0.70974171,1.0,0.0,0.0,0.0,135.55379175852775
5.4513,73778.091,2.6697120414697433,4.768408173338659,-0.815890133212557,0.9762157774186228,0.4277157337752729,-1.883013954281924,-11.776144041478773,10.731578806352632,-13.215940461772604,-151.601456,-96.95834436120958,0.0,151.601456,0.3457002308201609,0.59647769,-0.07800575,-0.72015333,1.0,0.0,0.0,0.0,139.55090737527047
5.4686,73778.111,2.710827602388811,4.8668329032742985,0.4060123435682854,0.3080095012466917,1.0608303374510646,-1.3665091122614923,-11.974682600287032,11.491937515433222,-13.178550285938872,-154.559525,-101.05769739421747,0.0,154.559525,0.3198170631919948,0.60108399,-0.07749805,-0.72829193,1.0,0.0,0.0,0.0,142.6962759874301
5.4909,73778.131,2.407978503623331,4.606091687694567,1.4470165733701474,-0.5783403227684356,1.637709210133295,-0.968538213114242,-11.965132814024432,11.92455584970953,-12.993370986412124,-156.05159,-104.68587860396481,0.0,156.05159,0.3036423767990736,0.60081363,-0.07445274,-0.73571807,1.0,0.0,0.0,0.0,144.6469906425189
5.5071,73778.151,1.9601471914338584,4.021898013046735,2.142238206389319,-1.620682367564111,2.1372789337240645,-0.7349281971337773,-11.795857456656897,12.148275585181315,-12.682595563375157,-156.472183,-109.20275581296767,0.0,156.472183,0.2958191952659255,0.59224492,-0.07327183,-0.74590093,1.0,0.0,0.0,0.0,145.58666720178113
5.5276,73778.171,1.6788125353044456,3.2991350496778646,2.3708514928404654,-2.688883822583729,2.5356096856467416,-0.643712857936998,-11.501429124185737,12.251010561722003,-12.354334042827045,-156.048325,-115.24179282501845,0.0,156.048325,0.2969906177728934,0.57175064,-0.08011984,-0.7605778,1.0,0.0,0.0,0.0,145.4461160227639
5.547,73778.1909,1.6821589460196804,2.658859815891651,2.1873039693384175,-3.644179813401036,2.8303369104472536,-0.6598563314736037,-11.010429158418422,12.341599134308684,-12.220753738260411,-155.028625,-121.31587747020131,0.0,155.028625,0.3069343669238272,0.5418632,-0.0993349,-0.77608514,1.0,0.0,0.0,0.0,144.250844057801
5.5675,73778.211,1.9168373661656737,2.196381207703742,1.7828985290539823,-4.405084559193047,3.0556334554611753,-0.7456301430069132,-10.251598293207284,12.650612349498678,-12.337160767485738,-153.734879,-126.33814457242697,0.0,153.734879,0.3211509670636839,0.50874507,-0.12877594,-0.78832561,1.0,0.0,0.0,0.0,142.53491044712163
5.5893,73778.231,2.347331609154966,1.9952175262885357,1.2782733894722114,-4.98555952769415,3.2791373898256704,-0.823574098815512,-9.29291619575026,13.370512474761323,-12.571847039220511,-152.202072,-130.70477078505797,0.0,152.202072,0.3351851491889848,0.47319475,-0.1631718,-0.79819334,1.0,0.0,0.0,0.0,140.8324056783735
5.6093,73778.2509,2.8594389988643827,2.091187375458494,0.6159503066945717,-5.490394345445292,3.558985223593235,-0.8254240217990354,-8.226431101713384,14.531445362652434,-12.828951654380317,-150.12886,-134.25118770017053,0.0,150.12886,0.3481595687142793,0.43435517,-0.19748941,-0.8069191,1.0,0.0,0.0,0.0,139.25042527379188
5.6278,73778.271,3.210067973772893,2.3599996408835664,-0.3540061271624211,-6.0636202169308575,3.8960365969985906,-0.7495900096011487,-7.0991424133174705,16.003558570338555,-13.137400602710322,-147.094666,-136.07296524668496,0.0,147.094666,0.3627923778530871,0.3948977,-0.22834657,-0.81258559,1.0,0.0,0.0,0.0,137.45643027482163
5.6537,73778.291,3.219076849975484,2.519331555276601,-1.727848280178078,-6.755732346509843,4.314909934066651,-0.6239394929105222,-5.7973798302355934,17.562803891128937,-13.672651246614642,-143.051575,-136.7751873042971,0.0,143.051575,0.3791520804368032,0.35337642,-0.2590858,-0.81501126,1.0,0.0,0.0,0.0,135.4376590831974
5.6708,73778.312,2.8148852824663315,2.19048062734457,-3.401593215664917,-7.501021870001015,4.824110697172873,-0.437111623528625,-4.251075069165109,18.855087637063882,-14.659164882240304,-137.550858,-136.80168269767847,0.0,137.550858,0.3971032956475795,0.30379254,-0.29265255,-0.81509113,1.0,0.0,0.0,0.0,133.20556810637737
5.6915,73778.3319,1.957125885930507,1.1852519249845093,-4.98865350488027,-8.205193106510055,5.285318149716888,-0.20419084348987582,-2.7495733408925034,19.254330046947036,-16.446859914019235,-128.88559,-135.0662515049991,0.0,128.88559,0.4230960994455102,0.24093851,-0.33079335,-0.80840218,1.0,0.0,0.0,0.0,129.93957582231596
5.7094,73778.352,0.7091937201378185,-0.5099533075310823,-5.833451144235701,-8.70091790006978,5.593267298823487,0.005882266877329734,-1.2058014026103212,18.559604258915435,-18.794488438292046,-118.1446,-131.9423060528938,0.0,118.1446,0.4529243147944622,0.17283988,-0.37027818,-0.7923888,1.0,0.0,0.0,0.0,126.13707935705636
5.7316,73778.372,-0.5481430491430928,-2.370230227215675,-5.424675168079608,-8.782214046320913,5.736370805464988,0.18176329857354023,0.15220076570680519,16.278748404680705,-21.617904486153165,-105.604095,-127.51911020503103,0.0,105.604095,0.4851701248475925,0.08937983,-0.41385099,-0.76508075,1.0,0.0,0.0,0.0,121.95276174833597
5.7541,73778.3919,-1.4493646745532356,-3.7418822533802523,-3.616612878275573,-8.342840548844098,5.646515083313022,0.3028110009928717,1.2868922830572984,13.029050497419544,-24.06008755707133,-94.474251,-122.15309973047367,0.0,94.474251,0.5143918896952769,-0.0005565,-0.4539794,-0.72753239,1.0,0.0,0.0,0.0,118.08636658825559
5.7699,73778.412,-1.6027922934664218,-4.091600583557078,-0.9293182942065243,-7.441817496652399,5.16084561295383,0.38234391655943156,2.0085699523328095,9.97096800624078,-25.66356663721538,-85.849579,-115.72444230749082,0.0,85.849579,0.5426994137778816,-0.08629779,-0.4850812,-0.68023986,1.0,0.0,0.0,0.0,114.26482121541123
5.7888,73778.432,-1.10803071743823,-3.287468303060671,1.7140767211233943,-6.11723418656373,4.342589991307791,0.3645497468079699,2.7522630845802842,8.00671332238653,-26.566171482626412,-79.988213,-109.70788729076124,0.0,79.988213,0.5640213000446062,-0.15948169,-0.50890344,-0.63044655,1.0,0.0,0.0,0.0,111.33128758474527
5.8118,73778.452,-0.3788016275704855,-1.8619370373142894,3.5521462363539396,-4.468235005086383,3.3100372804347016,0.3460800075761725,3.7153804509769053,7.647769965429947,-27.03124199766649,-76.83419,-105.06499872439447,0.0,76.83419,0.5763134902103576,-0.21472462,-0.52313954,-0.589984,1.0,0.0,0.0,0.0,109.61666259399766
5.831,73778.473,0.3182991152160959,-0.4735079873056083,4.395704270857967,-2.6746362510695114,2.1410261607092926,0.38206994657588356,4.776247471514197,8.547807227149741,-27.271651783973645,-75.279259,-101.76247813292606,0.0,75.279259,0.5835372121501807,-0.25190949,-0.52975982,-0.56158745,1.0,0.0,0.0,0.0,108.60056431933064
5.8526,73778.4929,0.9381857362547765,0.3457083900653075,4.390450890235181,-0.8893006649496007,0.9347734957762688,0.47350273787407043,5.696129097825294,10.299279102608638,-27.25635218244665,-74.417328,-99.41390567617749,0.0,74.417328,0.5910509244461819,-0.27106947,-0.52960241,-0.54470307,1.0,0.0,0.0,0.0,107.53675899267684
5.8765,73778.513,1.281614339412986,0.460690823537822,3.831186204549647,0.7975248728955178,-0.17820073637091963,0.5485521734284009,6.7537266696203,12.41980184587786,-26.804467253971847,-73.733704,-98.72055677966941,0.0,73.733704,0.596417841084267,-0.27014706,-0.5290817,-0.53979522,1.0,0.0,0.0,0.0,106.77245418387908
5.8914,73778.533,1.376204161958852,0.10949708000761693,3.0746549779309458,2.348011330184346,-1.0787481124760148,0.6017861958354406,7.84903387007234,14.475515482382967,-25.883975175622442,-72.885269,-99.56482378854558,0.0,72.885269,0.5995762698264282,-0.25122401,-0.53097719,-0.5435605,1.0,0.0,0.0,0.0,106.32088753699902
5.9181,73778.5529,1.3811362513329848,-0.36281383711843085,2.459843181320979,3.753414916346916,-1.7007949195477616,0.623379316343968,8.566928208282341,16.284535676905833,-24.616004146676744,-71.989235,-100.98739968725697,0.0,71.989235,0.6038019533929453,-0.21915533,-0.53082353,-0.55282956,1.0,0.0,0.0,0.0,105.71463890951746
5.9307,73778.573,1.1920742780251472,-0.6547034055004182,2.1900832742528547,4.966441569451812,-2.0976599303706776,0.6455520718669987,9.006272826251571,17.629711215502464,-23.151122334892186,-71.719223,-102.80101782888957,0.0,71.719223,0.6068425262106739,-0.17888254,-0.52607906,-0.56831682,1.0,0.0,0.0,0.0,105.27690890138005
5.9498,73778.593,0.6826867941873962,-0.7766048343524647,2.229560999143775,5.908737293836061,-2.4223272608477053,0.7173320485401613,9.375727362489098,18.47302275081471,-21.55843257688436,-72.832565,-104.9693349342794,0.0,72.832565,0.6067054904175513,-0.13283877,-0.51373971,-0.59189004,1.0,0.0,0.0,0.0,105.29666440657793
5.9712,73778.6129,-0.02690610114125569,-0.9315668207943806,2.34439864868226,6.533502848537315,-2.7870379590098984,0.8079729547080645,9.569743995441424,18.845261221240996,-19.99901444380365,-75.430824,-106.88218028742703,0.0,75.430824,0.6057239386156424,-0.08226301,-0.49121258,-0.62051713,1.0,0.0,0.0,0.0,105.4380920765204
5.9938,73778.633,-0.8214570311622555,-1.2532066727179014,2.2099389698268386,6.8462574797793945,-3.1949731648263633,0.9281812177543536,9.684925585446692,18.671135353605095,-18.687927993632222,-78.813774,-108.50881901361018,0.0,78.813774,0.6037674305407903,-0.02506042,-0.46380666,-0.6478582,1.0,0.0,0.0,0.0,105.71960163941952
6.0152,73778.653,-1.503094194485258,-1.6703443958489599,1.4985417126600318,6.881042778512497,-3.6340751253088164,1.065077915358759,10.01115483616905,17.7966534009322,-17.91068233050757,-82.772881,-110.13641937372498,0.0,82.772881,0.5978982972328951,0.03648471,-0.43743131,-0.67070138,1.0,0.0,0.0,0.0,106.560955798702
6.0302,73778.6729,-1.7427798394674845,-1.8757782065627175,0.07445347554306281,6.732362558923575,-3.963951275996204,1.1788922405725133,10.54897154001223,16.30553707197864,-17.90289907087842,-86.714806,-111.37494882737398,0.0,86.714806,0.5900013673184749,0.09871969,-0.41562736,-0.68513262,1.0,0.0,0.0,0.0,107.68578953976237
6.0519,73778.693,-1.3306877717293788,-1.5207026822584637,-1.8868200715221306,6.4467155150362565,-4.038012045295194,1.2939515551749592,11.344258259667773,14.602702776301614,-18.44207765969337,-90.7061,-112.18829538562629,0.0,90.7061,0.5801339083810122,0.16201974,-0.39912269,-0.69129974,1.0,0.0,0.0,0.0,109.0800768159926
6.0712,73778.713,-0.19153761063573516,-0.36933582967457634,-3.8949200227507035,5.9455576269075605,-3.8255068601315356,1.392379161233913,12.284737705556687,13.068169002714702,-19.19702314565389,-96.049393,-113.01468067773537,0.0,96.049393,0.5655110211021088,0.22271831,-0.38420826,-0.69496608,1.0,0.0,0.0,0.0,111.12442989188679
6.0918,73778.7329,1.4366176469229417,1.473947542886866,-5.358172393816841,5.173283443512629,-3.2399153886658745,1.4564839506789435,12.893700293805844,12.168270952545578,-19.917938295750794,-102.857727,-112.82404658034773,0.0,102.857727,0.5502817122004484,0.28127268,-0.36489818,-0.69636559,1.0,0.0,0.0,0.0,113.22731650220797
6.1107,73778.753,2.874397674447337,3.621405103180984,-5.818674634495252,4.046770835058475,-2.308520507625882,1.5654643552158396,13.15822182785611,11.918308466575837,-20.44614636601132,-110.147385,-110.6769236249245,0.0,110.147385,0.5372164975822867,0.33922124,-0.34315687,-0.69178808,1.0,0.0,0.0,0.0,115.0112919015409
6.1344,73778.773,3.4846216179590153,5.316059107322862,-5.22260965100433,2.5584617782737635,-1.2597957638708925,1.6563163617525598,13.029325727609352,12.091659728619808,-20.8562235343737,-117.348587,-106.72111568615803,0.0,117.348587,0.5260322904773964,0.38990456,-0.31717068,-0.68605191,1.0,0.0,0.0,0.0,116.52447486207257
6.1559,73778.7929,2.9864688818165743,5.888545073517679,-4.048566083227981,0.8823977390435835,-0.29252722509141954,1.7356618258204595,12.606266652163244,12.180151337679714,-21.32810387887435,-121.999741,-101.54099159512668,0.0,121.999741,0.520839849957751,0.42679265,-0.29360771,-0.67850453,1.0,0.0,0.0,0.0,117.2227923046475
6.1822,73778.8129,1.7143944597092902,5.207507278876313,-2.9278530669079945,-0.6665122473327756,0.43980964951524537,1.7977849467947706,11.591927969940343,11.88409773517277,-22.14696128766688,-121.25425,-95.26101937312444,0.0,121.25425,0.5318754295639212,0.4421182,-0.27290419,-0.66870272,1.0,0.0,0.0,0.0,115.73548432333988
6.1935,73778.833,0.29945576160268406,3.6407237305993636,-1.982302691823282,-1.8160776053672885,0.8699430376694275,1.8852838190751777,10.569836398940819,10.95656400458721,-23.042693275321394,-116.577621,-90.29002262865123,0.0,116.577621,0.5535907450031243,0.43849665,-0.26307747,-0.65730375,1.0,0.0,0.0,0.0,112.77259288692308
6.2174,73778.8529,-0.8278663114166918,1.8310457885644895,-1.0542360659013,-2.3800800738558574,1.0781232478282816,2.0200130442481785,9.918293040565123,9.673594039272098,-23.705306311112224,-109.873993,-86.91627701250731,0.0,109.873993,0.5791713160271761,0.42268398,-0.26446867,-0.64494586,1.0,0.0,0.0,0.0,109.21544298179026
6.2365,73778.8729,-1.515387624622758,0.18401117146019075,-0.08089907676630226,-2.3448709220277486,1.1504244549913532,2.2101516228675058,9.58383852593766,8.734828192720355,-23.988464756768025,-102.898041,-84.04966655500935,0.0,102.898041,0.6045513105658574,0.40382785,-0.26790199,-0.63219404,1.0,0.0,0.0,0.0,105.60687713540739
6.2831,73778.893,-1.805859771021317,-1.2175247978871524,0.7802713236405854,-1.8789439916544628,1.1284429443703254,2.38591741418486,9.368738585556045,8.597935627306141,-23.962664912653445,-96.057228,-79.6933722418883,0.0,96.057228,0.6319584209598836,0.39041951,-0.26533496,-0.61465317,1.0,0.0,0.0,0.0,101.61048093414404
6.2853,73778.913,-1.7411854645653762,-2.4103191845389778,1.3420825884182328,-1.1989556188232382,1.0644077947650428,2.458248955242095,9.016422989252646,9.217430753530003,-23.787945393281294,-89.913879,-74.15194292714773,0.0,89.913879,0.6606773001222693,0.38376328,-0.25288153,-0.59353364,1.0,0.0,0.0,0.0,97.2969039536205
6.2906,73778.933,-1.4514893495011156,-3.3597975216477876,1.4972900509329765,-0.4929914532170736,0.9879882647351117,2.3738525766009753,8.508980416521663,10.216528483992919,-23.530768611231274,-85.539642,-69.25225285035665,0.0,85.539642,0.6854166497556302,0.38187015,-0.23240533,-0.57477558,1.0,0.0,0.0,0.0,93.46323378998682
6.3105,73778.953,-1.0981614926940555,-3.8305846010472253,1.3149289417987688,0.11334333401299257,0.9219260608815765,2.1405116322644213,8.029538091689089,10.901569354009752,-23.343838906425283,-82.303085,-65.88989031395818,0.0,82.303085,0.7053161947095101,0.37871864,-0.21231818,-0.56037688,1.0,0.0,0.0,0.0,90.28981079208478
6.3321,73778.973,-0.777487430515956,-3.8032166832081753,0.9217673971247784,0.5584994083191314,0.8646632803449534,1.8360827327786322,7.789201829655891,11.117079137267785,-23.23103983649458,-79.81575,-63.56698982465317,0.0,79.81575,0.7204463052928227,0.37530062,-0.19681871,-0.54897082,1.0,0.0,0.0,0.0,87.81731893956439
6.3486,73778.9929,-0.4891032087403602,-3.413298830054347,0.4485087322626917,0.8316722153107542,0.8337409548462509,1.537715228635941,7.752419291153424,11.036969456716722,-23.15113266474514,-77.769936,-61.47833729276589,0.0,77.769936,0.7323545397151553,0.3744297,-0.18458429,-0.53794783,1.0,0.0,0.0,0.0,85.83170337265592
6.3688,73779.0129,-0.298371193742196,-2.888773902368424,0.011713931290969981,0.9386765709928058,0.83557053699605,1.2816939119394537,7.786720567084472,10.964772266208133,-23.036269645594075,-76.351288,-59.30200974406662,0.0,76.351288,0.7413219589169218,0.37897721,-0.17161791,-0.52665484,1.0,0.0,0.0,0.0,84.31170347070707
6.3887,73779.0329,-0.25512135378940837,-2.303290997099534,-0.24821284523716258,0.9055366965976857,0.8555651237237798,1.0565857864803248,7.663395076342129,10.77640114038615,-23.0568429191106,-75.265747,-57.5526525889137,0.0,75.265747,0.7494439384038195,0.3828648,-0.15644555,-0.51698464,1.0,0.0,0.0,0.0,82.91553389003322
6.4087,73779.0529,-0.40301652091999074,-1.6915277159809552,-0.2865663248753627,0.7630173122660426,0.847006765457205,0.8581217454289127,7.486557661727354,10.308975867581191,-23.272709032425958,-74.265259,-56.496935320100135,0.0,74.265259,0.7569893274401875,0.38264507,-0.14271849,-0.51007974,1.0,0.0,0.0,0.0,81.60100456177368
6.429,73779.0729,-0.5792242589400303,-1.1425369617393784,-0.18595948823921482,0.5489717677190095,0.7722226533300021,0.6878311234400407,7.293416414459306,9.706559725013106,-23.594331872204187,-73.499336,-56.03862564459636,0.0,73.499336,0.763489480178409,0.37956417,-0.13005672,-0.50606334,1.0,0.0,0.0,0.0,80.45440790622105
6.4498,73779.093,-0.5625249645875732,-0.7636072676672288,-0.06857526943673875,0.28932146978011464,0.6362572989551989,0.536045738458678,7.086516626887058,9.212575241685819,-23.88506100775791,-72.768753,-55.59544564940582,0.0,72.768753,0.7696954222845079,0.3767384,-0.11708253,-0.50192511,1.0,0.0,0.0,0.0,79.34690817036234
6.4706,73779.1129,-0.28483121755314755,-0.6368380137947975,9.619454065301625e-06,0.015417935254208648,0.47597047275080956,0.3805602138420814,6.975951348727037,8.946741254106694,-24.02243009478659,-71.894295,-54.76414044208383,0.0,71.894295,0.7755983628877843,0.37662527,-0.10541388,-0.49546796,1.0,0.0,0.0,0.0,78.28137249501205
6.4903,73779.133,0.12440050962175686,-0.6778691949905193,0.05916029379957166,-0.2188152247671033,0.34312644967557554,0.2014306978011624,7.080263289279763,8.669376214919478,-24.025124528894334,-70.80349,-53.83829990854621,0.0,70.80349,0.7807924468185189,0.37630209,-0.1002441,-0.48858061,1.0,0.0,0.0,0.0,77.33362309237513
6.5106,73779.153,0.46144948995469015,-0.7267115819888281,0.20285741539737323,-0.3570932801478738,0.2645829598104965,0.009450778705850343,7.214008738510712,8.291060746833445,-23.98314283757971,-69.125053,-52.77578651673933,0.0,69.125053,0.7873906511941591,0.37290519,-0.10025661,-0.4805271,1.0,0.0,0.0,0.0,76.11534385794266
6.532,73779.1729,0.5126674884789502,-0.6238385326401956,0.47044289342405143,-0.36616191251965136,0.2238045510870521,-0.157666951238333,7.337921538669905,7.850762913071543,-23.954548265910383,-67.36187,-51.924603090654394,0.0,67.36187,0.7937232742308907,0.36692786,-0.10430055,-0.47380239,1.0,0.0,0.0,0.0,74.93033706369482
6.5513,73779.193,0.35227771221880033,-0.3255324561655124,0.7685055082845444,-0.26656480491724854,0.1752260883003947,-0.25714591066217773,7.242851149505902,7.5087871377862765,-24.02986914678266,-66.445076,-51.92392420315014,0.0,66.445076,0.7977068327889103,0.35920423,-0.10644567,-0.47255206,1.0,0.0,0.0,0.0,74.17664875991076
6.5734,73779.213,0.1713338041666299,0.04100829503707004,0.9434446633587488,-0.12569897121638224,0.0753411624868162,-0.28143005835597457,6.908477342143627,7.537391682508925,-24.170164415294558,-66.33905,-52.25458443792012,0.0,66.33905,0.799705145438543,0.35437769,-0.10256638,-0.47367528,1.0,0.0,0.0,0.0,73.79608993009484
6.5905,73779.234,0.028591024310277824,0.3592345324329762,0.9044762958557655,-0.010936697337558449,-0.0810860938398361,-0.26063436520766325,6.638910828798541,7.908483084203618,-24.265620315094726,-66.214928,-52.00728575081932,0.0,66.214928,0.8012049894401441,0.35534519,-0.09699424,-0.47158507,1.0,0.0,0.0,0.0,73.50935015339456
6.615,73779.2539,-0.06948791724511238,0.6178122427609707,0.677480604507835,0.04074015799889885,-0.2599990979968792,-0.2254018147271155,6.597722160004051,8.34415270013069,-24.29389716246487,-65.861862,-51.30068615394603,0.0,65.861862,0.8023560550024786,0.35945848,-0.09445614,-0.46700364,1.0,0.0,0.0,0.0,73.28863659588505
6.6314,73779.274,-0.12498014726805895,0.8706933654415434,0.36776414011045766,0.02817924103796704,-0.41326921038654163,-0.18546736638324712,6.712329383879383,8.616810658865097,-24.30617441048519,-65.192215,-50.442746354526896,0.0,65.192215,0.8039288323798438,0.36265108,-0.09571856,-0.46154153,1.0,0.0,0.0,0.0,72.98613363325157
6.6514,73779.294,-0.13056325247956924,1.091677282523071,0.06769693102610219,-0.03090141264457749,-0.4990758715663684,-0.13711116726902045,6.875873153159653,8.747786905961444,-24.320939886560225,-64.500656,-49.691635464143026,0.0,64.500656,0.805291818210575,0.36470205,-0.09888934,-0.45685709,1.0,0.0,0.0,0.0,72.7231055829762
6.6717,73779.314,-0.11834469752436227,1.218304560536347,-0.18483652961547925,-0.11811775791135712,-0.4954040477679472,-0.07990347979835735,7.084910412071067,8.824235835627206,-24.324586106251694,-63.683235,-48.78146678773696,0.0,63.683234999999996,0.8065651986669903,0.36748782,-0.10344131,-0.4513371,1.0,0.0,0.0,0.0,72.47662642106846
6.694,73779.334,-0.04034993548207577,1.1741782178893798,-0.37216905691665936,-0.2246750707303068,-0.40634284019180755,-0.027167938644766992,7.198082359485804,8.914254985013056,-24.338438321918584,-62.918503,-47.838278369564875,0.0,62.918503,0.8077323049372834,0.37101868,-0.10662843,-0.44558281,1.0,0.0,0.0,0.0,72.2500809838334
6.7154,73779.354,0.15031419485316277,0.984243916744425,-0.49167713780067146,-0.34245907108128176,-0.2606094608564358,0.00022240720881208653,7.078906985959338,8.916650553668486,-24.425551770453502,-61.919067,-46.90802797366364,0.0,61.919067,0.8106254929887574,0.37222594,-0.10725228,-0.43912539,1.0,0.0,0.0,0.0,71.68582227522495
6.7425,73779.374,0.4124139350214051,0.6894411296315521,-0.5573466217014591,-0.4642482809225239,-0.09711897485190751,-0.018959117410563747,6.766864782531912,8.84374418530617,-24.55011442573774,-60.569195,-45.90898238873373,0.0,60.56919500000001,0.8155359714347032,0.37099746,-0.10586247,-0.43134105,1.0,0.0,0.0,0.0,70.71921590466766
6.7598,73779.3939,0.6165156086864947,0.31967596760732864,-0.5995820443291375,-0.5836083506533244,0.05635102493992475,-0.08720345047892009,6.465419059356862,8.76082297124358,-24.630159536738226,-59.450397,-45.1899768031987,0.0,59.45039700000001,0.8197004638616742,0.3688181,-0.10510794,-0.42546055,1.0,0.0,0.0,0.0,69.8903594614941
6.7792,73779.414,0.6673096051923366,-0.0660431668329049,-0.649784623929385,-0.691049132940081,0.18258182192144531,-0.18180440501251707,6.139111216295756,8.728499314450112,-24.67447807363286,-58.450054,-44.704060437365825,0.0,58.450053999999994,0.8238971069753023,0.36500013,-0.1039812,-0.42089948,1.0,0.0,0.0,0.0,69.04633265421816
6.7962,73779.434,0.5043520304863671,-0.37799724453505945,-0.7115695484807532,-0.7798227507336432,0.27743196974666184,-0.28063748370190233,5.96916759810431,8.646354247235394,-24.700343465490118,-57.43655,-44.472008743971934,0.0,57.43655,0.827983682107989,0.35827321,-0.10610313,-0.41812134,1.0,0.0,0.0,0.0,68.21566577519553
6.8115,73779.4539,0.25419412635558647,-0.6175066581795554,-0.785819837733726,-0.85889530658629,0.33560948151386,-0.37000127828021356,5.906793972494929,8.629339239977838,-24.710235769187463,-56.670979,-44.57363009692055,0.0,56.670979,0.8314480323847249,0.34981078,-0.10917553,-0.41762099,1.0,0.0,0.0,0.0,67.50445093060681
6.83,73779.474,0.1367601888208445,-0.8470966182979556,-0.8981947732114755,-0.9584833742336965,0.3448096085275676,-0.45529276839122124,5.747341964808556,8.831698338178256,-24.729116740724386,-56.179253,-44.840110959609696,0.0,56.179253,0.8351158828261,0.34116155,-0.10795013,-0.41777629,1.0,0.0,0.0,0.0,66.74418673352162
6.8499,73779.494,0.18399596352307768,-1.0419881815201317,-1.0994819174680917,-1.1069358199459818,0.3011424953626162,-0.5748583925322107,5.703353449877805,9.01639510926343,-24.8056063022942,-55.498184,-45.02724544413946,0.0,55.49818400000001,0.839444733344237,0.33114228,-0.10761402,-0.41724879,1.0,0.0,0.0,0.0,65.83693759526629
6.8699,73779.5139,0.32821963563304246,-1.1627333564336255,-1.4574379815789804,-1.3369111094275623,0.2082527044803878,-0.7551949009795023,5.853984806284665,9.057496728381437,-24.954676103037148,-54.412178,-44.99547485815271,0.0,54.412178,0.844590586973248,0.31936625,-0.11082626,-0.41519812,1.0,0.0,0.0,0.0,64.74380568020663
6.8899,73779.534,0.419113822554638,-1.1688150537509974,-2.007022863672053,-1.691856025526354,0.07206215281965667,-0.9853344121697246,6.175145637498621,8.953629080084973,-25.135482020093335,-53.168343,-44.93318242455275,0.0,53.16834299999999,0.8495686292549236,0.30610082,-0.11812013,-0.41301703,1.0,0.0,0.0,0.0,63.6704358373079
6.913,73779.554,0.36557578014126246,-1.115057410743421,-2.712538212674504,-2.224559053677348,-0.08924878957887505,-1.2092318426488753,6.526654400424478,8.817740378621938,-25.277344316853597,-52.501629,-45.43941888784541,0.0,52.50162900000001,0.8523694602083367,0.2916902,-0.12751512,-0.41487712,1.0,0.0,0.0,0.0,63.05934429579469
6.9335,73779.5739,0.2195706948835734,-1.1112684774031525,-3.4515931324166944,-2.964538656437447,-0.2525907488551278,-1.356537641359767,6.743291996241068,8.628767300649132,-25.381332909602207,-52.362923,-46.64860446117332,0.0,52.362922999999995,0.8537974657048101,0.27333024,-0.13815694,-0.42099065,1.0,0.0,0.0,0.0,62.74572635574709
6.9547,73779.5949,0.062018596612954724,-1.2685950484220996,-4.040287971138806,-3.86339531614852,-0.4085896153203301,-1.4101966492171842,6.9327404321226735,8.150363832550187,-25.475782194753055,-51.578819,-47.845049543234914,0.0,51.57881900000001,0.8569017469592267,0.24651462,-0.15565458,-0.42511362,1.0,0.0,0.0,0.0,62.05905810714416
6.9752,73779.616,-0.058723301285310114,-1.739189253251004,-4.269297461503553,-4.81306601833634,-0.5344961797117078,-1.3945719562640844,7.092212403505913,7.648560231740172,-25.46804922353337,-49.85519,-48.44942568431722,0.0,49.85518999999999,0.8620332203795182,0.21449587,-0.1789405,-0.4229309,1.0,0.0,0.0,0.0,60.908709965088356
7.0025,73779.636,-0.23188490420550278,-2.3617921023638107,-3.8644040832682682,-5.679796621389917,-0.573140513241301,-1.3136193411255577,7.185857015795879,6.9357697062496335,-25.431451184705196,-47.748226,-49.075253309738656,0.0,47.74822599999999,0.8676994474589698,0.17258851,-0.20805931,-0.41715968,1.0,0.0,0.0,0.0,59.61521778583534
7.0138,73779.656,-0.5492248963416758,-2.817875551642428,-2.644324651285312,-6.299181578941051,-0.472699902703992,-1.153353684725579,7.118338735418853,6.196297179355069,-25.3575450724408,-45.911385,-49.9430902874442,0.0,45.911384999999996,0.8721295564243405,0.1223741,-0.23852301,-0.40929377,1.0,0.0,0.0,0.0,58.58588262614048
7.0381,73779.676,-0.9690860903851725,-2.6323797319310938,-0.655345819515837,-6.489793158956301,-0.1854584591336339,-0.9415372521727698,6.9711853371007235,5.283296458279495,-25.301541543898367,-44.718922,-51.30190840235933,0.0,44.71892199999999,0.8734335641712411,0.06137615,-0.27065876,-0.40011325,1.0,0.0,0.0,0.0,58.279745801796665
7.0553,73779.696,-1.253878353948525,-1.5526968596278388,1.6600048983627023,-6.1212916433661375,0.1737462916951924,-0.7615310793256362,6.711355633620566,4.421817093321333,-25.287205034707107,-43.508183,-51.96799637784377,0.0,43.508183,0.8732267115851043,-0.00530518,-0.30181462,-0.38256359,1.0,0.0,0.0,0.0,58.3284055445695
7.08,73779.716,-1.2597052475087738,0.1115109542410837,3.5970188169734385,-5.222714262547443,0.5288694882768405,-0.6751959682927908,6.275369062163049,4.112034720805935,-25.331399396483214,-42.347649,-51.583072242493145,0.0,42.34764899999999,0.8722603957944526,-0.06652346,-0.32578042,-0.35861337,1.0,0.0,0.0,0.0,58.555231842272725
7.0962,73779.7359,-0.9469983534521201,1.605207129608043,4.667555284085662,-3.9785433791635785,0.8758065475255239,-0.6590216170754452,5.55709313063353,4.735365349269102,-25.435209114944,-41.973679,-50.80459516271025,0.0,41.973679000000004,0.8716090142498717,-0.11339312,-0.33445385,-0.3399711,1.0,0.0,0.0,0.0,58.70768181091351
7.1138,73779.756,-0.5458156515498833,2.448678956290562,4.815590832171788,-2.6367721416752534,1.1458977623370221,-0.7150106903736339,4.90516532078634,6.130728783755533,-25.439801622745318,-42.441185,-50.376946414236514,0.0,42.44118499999999,0.8710564182683623,-0.14321055,-0.33180353,-0.33265278,1.0,0.0,0.0,0.0,58.83672973387562
7.1337,73779.776,-0.16298019844118516,2.646265204992048,4.359916524915299,-1.4227809793064092,1.274314613207304,-0.7822553995148124,4.386230298416813,7.959755263986516,-25.22204388425072,-43.238953,-50.109482277953084,0.0,43.23895300000001,0.8722882534620108,-0.15771604,-0.32044402,-0.33399773,1.0,0.0,0.0,0.0,58.54870394163434
7.1543,73779.796,0.07686337035799107,2.578998983756117,3.803865456900416,-0.42624734179859475,1.2738907328088924,-0.8482676333621557,4.124476538311823,9.737587898373683,-24.769867679495075,-43.958874,-49.95746679140022,0.0,43.95887400000001,0.8745179487695769,-0.16148552,-0.30682474,-0.33911556,1.0,0.0,0.0,0.0,58.02404746724795
7.1736,73779.8159,0.18244141843182293,2.6710189146293972,3.55114658830286,0.41291971364715574,1.1871593463337726,-0.9282335580931526,4.1039103764320535,10.904950572706127,-24.313736644523853,-44.558529,-49.9296258345745,0.0,44.55852899999999,0.8759191781157557,-0.16384582,-0.29629835,-0.34369671,1.0,0.0,0.0,0.0,57.692105198465455
7.1953,73779.836,0.27837955377104917,2.8778989499261014,3.6773631441611023,1.2102203993671252,1.0543666116009498,-1.0271784209026735,4.101761590486619,11.519637333232915,-23.977776595428466,-45.079174,-49.839607178160435,0.0,45.079173999999995,0.8772654096821545,-0.16688828,-0.28619352,-0.34734273,1.0,0.0,0.0,0.0,57.37153891303928
7.2155,73779.856,0.3678774942834184,2.7749702074503224,3.9540567951819963,2.043383557682793,0.9034546041287119,-1.128701893292087,4.1760496580814195,12.126525040658292,-23.57412478467821,-45.82793,-50.060285119747604,0.0,45.82793000000001,0.8789273788193076,-0.16276576,-0.27279386,-0.35577729,1.0,0.0,0.0,0.0,56.97351350929744
7.2345,73779.877,0.43086605134653044,2.198198203833262,4.042487133913365,2.89745451112573,0.7316019483798697,-1.2241365781236007,4.433340719970973,12.852413395498317,-23.04383945698071,-47.026035,-50.892367979483645,0.0,47.02603500000001,0.8799719787562162,-0.14917533,-0.25610131,-0.37122521,1.0,0.0,0.0,0.0,56.72203315359564
7.2546,73779.8968,0.5031738094443957,1.1992544717729015,3.7814631593686077,3.6926098810657533,0.5721090683572463,-1.3223448429093143,4.708259190082314,13.771021392793486,-22.35749090356818,-48.176044,-51.796870819357956,0.0,48.17604399999999,0.8818929835403974,-0.12379104,-0.2355473,-0.38917607,1.0,0.0,0.0,0.0,56.25687437941931
7.2762,73779.9179,0.5495824107737592,0.13540805842938974,3.223451998796424,4.372137787381932,0.4426456198504165,-1.4326637533805053,4.964881981252384,14.604705011558377,-21.65915765132849,-49.196747,-52.62819535106983,0.0,49.196747000000016,0.883622371609426,-0.09088019,-0.21427453,-0.40624958,1.0,0.0,0.0,0.0,55.83507250202569
7.2964,73779.938,0.4730856748032276,-0.7557329116303109,2.507901996901749,4.912937363322633,0.32074404909754684,-1.547315253656762,5.235380668102688,15.201155314024525,-21.046200630316445,-50.480061,-53.65894205624695,0.0,50.480061000000006,0.8832855768341874,-0.05375335,-0.19295062,-0.4238953,1.0,0.0,0.0,0.0,55.917446822022136
7.3156,73779.958,0.2185364191102258,-1.2629241768845088,1.665952249930477,5.288291508807257,0.15696851816996515,-1.664173768611104,5.433442158942349,15.357014625342115,-20.719013027347334,-52.294552,-55.035067909659624,0.0,52.29455200000001,0.8799566633623641,-0.01868428,-0.17121519,-0.44273302,1.0,0.0,0.0,0.0,56.725727612310806
7.3388,73779.9779,-0.2428875620611829,-1.4556891913602323,0.6097602446001318,5.460486732147408,-0.06802563375369708,-1.7280541512650434,5.653378795132337,15.309273189788392,-20.523383006737106,-54.885384,-57.00754148913258,0.0,54.885384,0.8725026819177993,0.01882243,-0.14867233,-0.46506056,1.0,0.0,0.0,0.0,58.49843459481678
7.3574,73779.999,-0.7486858071218271,-1.3664811558880054,-0.6919208587836927,5.370637917244803,-0.3157959702833719,-1.7122169116853714,5.868159995396784,15.294442540188545,-20.343710836868887,-58.090321,-59.28081930529924,0.0,58.090321,0.8611319953317017,0.06246594,-0.12514868,-0.48876119,1.0,0.0,0.0,0.0,61.11215633442739
7.3768,73780.019,-1.0681796361388272,-0.8816125056772421,-2.0347678711792483,4.974849608716848,-0.5358943046733322,-1.640116530492715,5.89899903904445,15.150022945862343,-20.417221617893,-61.180336,-61.147265115467796,0.0,61.180336,0.8487538619247249,0.10514425,-0.10363118,-0.5077619,1.0,0.0,0.0,0.0,63.8472197540387
